File: assets/data/P03/xrd/806-7B0407.uxd
; E:\Taha\806-7B0407\gixrd-FeO-001.raw(Diffrac Plus V1.01 file) converted by XCH V1.0
_FILEVERSION=2
_SAMPLE='7B0407'
_SITE=' ngstr mlab'
_USER='Materialkemi'
_SAMPLE_CHANGER_CODE=0
_ATTACHMENTS_CODE=0
_GONIOMETER_RADIUS=217.5
_FIXED_DIVSLIT=0.150000
_FIXED_SAMPLESLIT=1.000000
_SOLLER_SLITS='Y'
_FIXED_DETSLIT=1.000000
_MONOCHROMATOR=0
; None
_THIN_FILM='N'
_BETA_FILTER='N'
_FIXED_ANTISLIT=0.150000
_ANALYZER_CODE=0
; None
_DATEMEASURED='06-Aug-2011 15:55:13'
_RUNTIME=14257.5
_WL_UNIT='A'
_WL1=1.540600
_WL2=1.544390
_WL3=1.392220
_WLRATIO=0.500000
_ANODE='Cu'
; (Data for Range number 1)
_DRIVE='2THETA'
_STEPTIME=0.250000
_STEPSIZE=0.050000
_STEPMODE='C'
_START=25
_THETA=0.050000
_2THETA=25
_KHI=0.000000
_PHI=0.000000
_X=0.000000
_Y=0.000000
_Z=0.000000
_DIVERGENCE=1.000000
_ANTISCATTER=1.000000
_DETECTOR=1
; S.C.
_HV=800
_GAIN=2.000000
_LLD=0.700000
_ULD=3.000000
_DETECTORSLIT='unkn'
_AUX1=0.000000
_AUX2=0.000000
_AUX3=0.000000
_TIMESTARTED=31
_TEMPERATURE=26.84
_TEMP_RATE=0.000000
_TEMP_DELAY=0.000000
_KV=45
_MA=40
_RANGE_WL=1.540600
_3DPLANE=0
_2THETACOUNTS
25.0000	60
25.1000	66
25.2000	65
25.3000	42
25.4000	47
25.5000	60
25.6000	52
25.7000	56
25.8000	40
25.9000	57
26.0000	57
26.1000	67
26.2000	52
26.3000	61
26.4000	67
26.5000	48
26.6000	56
26.7000	59
26.8000	65
26.9000	51
27.0000	53
27.1000	51
27.2000	64
27.3000	48
27.4000	52
27.5000	58
27.6000	56
27.7000	55
27.8000	38
27.9000	47
28.0000	54
28.1000	62
28.2000	48
28.3000	48
28.4000	40
28.5000	57
28.6000	44
28.7000	43
28.8000	39
28.9000	47
29.0000	49
29.1000	34
29.2000	57
29.3000	54
29.4000	39
29.5000	41
29.6000	48
29.7000	54
29.8000	50
29.9000	48
30.0000	41
30.1000	45
30.2000	54
30.3000	43
30.4000	34
30.5000	45
30.6000	47
30.7000	41
30.8000	41
30.9000	40
31.0000	45
31.1000	54
31.2000	42
31.3000	35
31.4000	50
31.5000	52
31.6000	53
31.7000	63
31.8000	55
31.9000	59
32.0000	53
32.1000	43
32.2000	40
32.3000	43
32.4000	46
32.5000	42
32.6000	31
32.7000	28
32.8000	38
32.9000	40
33.0000	46
33.1000	34
33.2000	45
33.3000	37
33.4000	39
33.5000	42
33.6000	43
33.7000	44
33.8000	79
33.9000	68
34.0000	70
34.1000	67
34.2000	54
34.3000	32
34.4000	36
34.5000	60
34.6000	65
34.7000	82
34.8000	56
34.9000	33
35.0000	47
35.1000	46
35.2000	47
35.3000	58
35.4000	56
35.5000	63
35.6000	52
35.7000	45
35.8000	51
35.9000	52
36.0000	45
36.1000	49
36.2000	67
36.3000	91
36.4000	74
36.5000	55
36.6000	46
36.7000	33
36.8000	41
36.9000	38
37.0000	37
37.1000	32
37.2000	29
37.3000	36
37.4000	32
37.5000	29
37.6000	42
37.7000	51
37.8000	70
37.9000	53
38.0000	83
38.1000	76
38.2000	50
38.3000	48
38.4000	29
38.5000	32
38.6000	26
38.7000	39
38.8000	30
38.9000	31
39.0000	21
39.1000	29
39.2000	18
39.3000	23
39.4000	23
39.5000	25
39.6000	21
39.7000	27
39.8000	26
39.9000	21
40.0000	30
40.1000	23
40.2000	21
40.3000	20
40.4000	29
40.5000	23
40.6000	25
40.7000	22
40.8000	19
40.9000	25
41.0000	17
41.1000	36
41.2000	20
41.3000	14
41.4000	25
41.5000	31
41.6000	23
41.7000	26
41.8000	19
41.9000	22
42.0000	23
42.1000	19
42.2000	25
42.3000	27
42.4000	23
42.5000	16
42.6000	23
42.7000	24
42.8000	34
42.9000	31
43.0000	18
43.1000	25
43.2000	22
43.3000	25
43.4000	21
43.5000	15
43.6000	18
43.7000	23
43.8000	21
43.9000	26
44.0000	19
44.1000	18
44.2000	15
44.3000	29
44.4000	24
44.5000	23
44.6000	20
44.7000	20
44.8000	20
44.9000	24
45.0000	22
45.1000	18
45.2000	13
45.3000	25
45.4000	18
45.5000	28
45.6000	21
45.7000	28
45.8000	21
45.9000	18
46.0000	23
46.1000	29
46.2000	11
46.3000	17
46.4000	19
46.5000	21
46.6000	23
46.7000	20
46.8000	21
46.9000	26
47.0000	30
47.1000	14
47.2000	17
47.3000	21
47.4000	22
47.5000	23
47.6000	25
47.7000	29
47.8000	22
47.9000	22
48.0000	21
48.1000	29
48.2000	24
48.3000	20
48.4000	17
48.5000	17
48.6000	24
48.7000	20
48.8000	18
48.9000	12
49.0000	15
49.1000	15
49.2000	19
49.3000	24
49.4000	18
49.5000	17
49.6000	24
49.7000	18
49.8000	17
49.9000	33
50.0000	23
50.1000	19
50.2000	24
50.3000	14
50.4000	20
50.5000	16
50.6000	20
50.7000	18
50.8000	17
50.9000	25
51.0000	28
51.1000	14
51.2000	17
51.3000	35
51.4000	26
51.5000	36
51.6000	51
51.7000	65
51.8000	78
51.9000	74
52.0000	54
52.1000	46
52.2000	33
52.3000	29
52.4000	18
52.5000	14
52.6000	21
52.7000	14
52.8000	23
52.9000	20
53.0000	15
53.1000	17
53.2000	14
53.3000	23
53.4000	14
53.5000	19
53.6000	23
53.7000	19
53.8000	16
53.9000	21
54.0000	21
54.1000	26
54.2000	13
54.3000	26
54.4000	21
54.5000	28
54.6000	18
54.7000	31
54.8000	23
54.9000	32
55.0000	24
55.1000	29
55.2000	27
55.3000	10
55.4000	24
55.5000	9
55.6000	23
55.7000	28
55.8000	26
55.9000	24
56.0000	15
56.1000	22
56.2000	20
56.3000	15
56.4000	24
56.5000	23
56.6000	24
56.7000	31
56.8000	26
56.9000	34
57.0000	18
57.1000	23
57.2000	19
57.3000	27
57.4000	19
57.5000	26
57.6000	16
57.7000	9
57.8000	17
57.9000	13
58.0000	21
58.1000	15
58.2000	17
58.3000	23
58.4000	13
58.5000	18
58.6000	20
58.7000	19
58.8000	15
58.9000	13
59.0000	17
59.1000	17
59.2000	14
59.3000	16
59.4000	19
59.5000	14
59.6000	16
59.7000	19
59.8000	16
59.9000	14
60.0000	17
60.1000	13
60.2000	22
60.3000	28
60.4000	11
60.5000	10
60.6000	15
60.7000	10
60.8000	25
60.9000	19
61.0000	14
61.1000	19
61.2000	14
61.3000	29
61.4000	27
61.5000	25
61.6000	21
61.7000	31
61.8000	23
61.9000	43
62.0000	33
62.1000	37
62.2000	34
62.3000	29
62.4000	23
62.5000	22
62.6000	37
62.7000	24
62.8000	25
62.9000	21
63.0000	34
63.1000	23
63.2000	32
63.3000	31
63.4000	22
63.5000	21
63.6000	20
63.7000	19
63.8000	9
63.9000	16
64.0000	14
64.1000	10
64.2000	17
64.3000	13
64.4000	13
64.5000	16
64.6000	18
64.7000	21
64.8000	20
64.9000	25
65.0000	19
65.1000	19
65.2000	16
65.3000	22
65.4000	16
65.5000	13
65.6000	24
65.7000	19
65.8000	26
65.9000	19
66.0000	24
66.1000	16
66.2000	26
66.3000	28
66.4000	17
66.5000	7
66.6000	19
66.7000	19
66.8000	8
66.9000	14
67.0000	17
67.1000	18
67.2000	10
67.3000	18
67.4000	16
67.5000	16
67.6000	13
67.7000	11
67.8000	9
67.9000	18
68.0000	20
68.1000	26
68.2000	19
68.3000	21
68.4000	27
68.5000	12
68.6000	12
68.7000	19
68.8000	11
68.9000	20
69.0000	12
69.1000	15
69.2000	17
69.3000	11
69.4000	18
69.5000	12
69.6000	11
69.7000	13
69.8000	14
69.9000	15
70.0000	14
70.1000	15
70.2000	14
70.3000	11
70.4000	15
70.5000	7
70.6000	13
70.7000	16
70.8000	12
70.9000	12
71.0000	14
71.1000	18
71.2000	17
71.3000	15
71.4000	12
71.5000	19
71.6000	16
71.7000	9
71.8000	14
71.9000	9
72.0000	13
72.1000	13
72.2000	11
72.3000	15
72.4000	7
72.5000	14
72.6000	14
72.7000	18
72.8000	18
72.9000	12
73.0000	10
73.1000	16
73.2000	12
73.3000	17
73.4000	22
73.5000	16
73.6000	16
73.7000	15
73.8000	9
73.9000	13
74.0000	14
74.1000	19
74.2000	14
74.3000	16
74.4000	11
74.5000	8
74.6000	15
74.7000	9
74.8000	13
74.9000	7
75.0000	8
75.1000	13
75.2000	12
75.3000	10
75.4000	13
75.5000	10
75.6000	15
75.7000	14
75.8000	16
75.9000	15
76.0000	8
76.1000	15
76.2000	6
76.3000	17
76.4000	7
76.5000	11
76.6000	13
76.7000	14
76.8000	17
76.9000	15
77.0000	24
77.1000	13
77.2000	23
77.3000	22
77.4000	14
77.5000	10
77.6000	15
77.7000	8
77.8000	10
77.9000	20
78.0000	15
78.1000	13
78.2000	15
78.3000	12
78.4000	10
78.5000	19
78.6000	25
78.7000	21
78.8000	17
78.9000	31
79.0000	12
79.1000	14
79.2000	25
79.3000	12
79.4000	18
79.5000	16
79.6000	6
79.7000	14
79.8000	15
79.9000	12
80.0000	14
80.1000	14
80.2000	16
80.3000	18
80.4000	15
80.5000	14
80.6000	12
80.7000	14
80.8000	11
80.9000	19
81.0000	15
81.1000	19
81.2000	12
81.3000	18
81.4000	9
81.5000	10
81.6000	18
81.7000	14
81.8000	9
81.9000	14
82.0000	9
82.1000	9
82.2000	14
82.3000	5
82.4000	15
82.5000	10
82.6000	12
82.7000	12
82.8000	12
82.9000	8
83.0000	11
83.1000	10
83.2000	11
83.3000	13
83.4000	10
83.5000	14
83.6000	15
83.7000	19
83.8000	15
83.9000	19
84.0000	14
84.1000	16
84.2000	8
84.3000	13
84.4000	19
84.5000	12
84.6000	16
84.7000	21
84.8000	13
84.9000	17
85.0000	13
85.1000	10
85.2000	12
85.3000	14
85.4000	9
85.5000	12
85.6000	11
85.7000	7
85.8000	10
85.9000	17
86.0000	10
86.1000	12
86.2000	11
86.3000	18
86.4000	6
86.5000	9
86.6000	9
86.7000	17
86.8000	12
86.9000	12
87.0000	9
87.1000	17
87.2000	17
87.3000	17
87.4000	17
87.5000	19
87.6000	11
87.7000	11
87.8000	14
87.9000	15
88.0000	12
88.1000	15
88.2000	8
88.3000	12
88.4000	16
88.5000	12
88.6000	12
88.7000	7
88.8000	11
88.9000	12
89.0000	5
89.1000	15
89.2000	6
89.3000	14
89.4000	8
89.5000	28
89.6000	14
89.7000	12
89.8000	18
89.9000	17
90.0000	13
90.1000	11
90.2000	13
90.3000	13
90.4000	15
90.5000	18
90.6000	17
90.7000	17
90.8000	22
90.9000	12
91.0000	19
91.1000	17
91.2000	15
91.3000	9
91.4000	13
91.5000	3
91.6000	11
91.7000	14
91.8000	8
91.9000	11
92.0000	9
92.1000	13
92.2000	4
92.3000	10
92.4000	11
92.5000	8
92.6000	15
92.7000	7
92.8000	12
92.9000	14
93.0000	14
93.1000	16
93.2000	12
93.3000	8
93.4000	16
93.5000	9
93.6000	16
93.7000	18
93.8000	15
93.9000	10
94.0000	13
94.1000	6
94.2000	11
94.3000	13
94.4000	6
94.5000	8
94.6000	10
94.7000	13
94.8000	8
94.9000	15
95.0000	11
95.1000	10
95.2000	9
95.3000	4
95.4000	11
95.5000	8
95.6000	7
95.7000	16
95.8000	14
95.9000	15
96.0000	12
96.1000	9
96.2000	12
96.3000	9
96.4000	11
96.5000	15
96.6000	7
96.7000	12
96.8000	9
96.9000	9
97.0000	7
97.1000	10
97.2000	13
97.3000	8
97.4000	13
97.5000	10
97.6000	8
97.7000	9
97.8000	12
97.9000	9
98.0000	10
98.1000	8
98.2000	9
98.3000	14
98.4000	11
98.5000	10
98.6000	15
98.7000	11
98.8000	10
98.9000	7
99.0000	12
99.1000	17
99.2000	10
99.3000	6
99.4000	7
99.5000	9
99.6000	9
99.7000	8
99.8000	9
99.9000	7
100.0000	9
100.1000	14
100.2000	12
100.3000	8
100.4000	10
100.5000	10
100.6000	6
100.7000	12
100.8000	6
100.9000	9
101.0000	11
101.1000	14
101.2000	9
101.3000	5
101.4000	9
101.5000	8
101.6000	7
101.7000	9
101.8000	18
101.9000	5
102.0000	8
102.1000	8
102.2000	14
102.3000	11
102.4000	12
102.5000	10
102.6000	12
102.7000	12
102.8000	10
102.9000	10
103.0000	11
103.1000	7
103.2000	13
103.3000	14
103.4000	9
103.5000	6
103.6000	7
103.7000	12
103.8000	12
103.9000	15
104.0000	14
104.1000	11
104.2000	14
104.3000	11
104.4000	7
104.5000	13
104.6000	12
104.7000	13
104.8000	13
104.9000	6
105.0000	11
105.1000	11
105.2000	10
105.3000	9
105.4000	14
105.5000	13
105.6000	13
105.7000	9
105.8000	11
105.9000	12
106.0000	7
106.1000	8
106.2000	6
106.3000	10
106.4000	16
106.5000	9
106.6000	11
106.7000	5
106.8000	8
106.9000	10
107.0000	17
107.1000	13
107.2000	8
107.3000	10
107.4000	16
107.5000	4
107.6000	10
107.7000	19
107.8000	16
107.9000	14
108.0000	10
108.1000	19
108.2000	19
108.3000	13
108.4000	27
108.5000	11
108.6000	14
108.7000	15
108.8000	15
108.9000	15
109.0000	9
109.1000	6
109.2000	11
109.3000	17
109.4000	12
109.5000	18
109.6000	18
109.7000	16
109.8000	17
109.9000	12
110.0000	22
110.1000	10
110.2000	21
110.3000	15
110.4000	12
110.5000	10
110.6000	14
110.7000	9
110.8000	19
110.9000	11
111.0000	13
111.1000	16
111.2000	10
111.3000	11
111.4000	14
111.5000	16
111.6000	14
111.7000	12
111.8000	13
111.9000	16
112.0000	8
112.1000	12
112.2000	18
112.3000	6
112.4000	8
112.5000	12
112.6000	13
112.7000	14
112.8000	17
112.9000	6
113.0000	13
113.1000	12
113.2000	7
113.3000	10
113.4000	12
113.5000	15
113.6000	14
113.7000	16
113.8000	12
113.9000	10
114.0000	14
114.1000	12
114.2000	8
114.3000	12
114.4000	14
114.5000	16
114.6000	23
114.7000	15
114.8000	14
114.9000	14
115.0000	16
115.1000	25
115.2000	16
115.3000	16
115.4000	14
115.5000	16
115.6000	8
115.7000	19
115.8000	17
115.9000	18
116.0000	13
116.1000	21
116.2000	15
116.3000	19
116.4000	16
116.5000	16
116.6000	15
116.7000	5
116.8000	17
116.9000	12
117.0000	19
117.1000	13
117.2000	17
117.3000	7
117.4000	13
117.5000	14
117.6000	13
117.7000	10
117.8000	6
117.9000	13
118.0000	14
118.1000	12
118.2000	9
118.3000	9
118.4000	14
118.5000	6
118.6000	9
118.7000	5
118.8000	11
118.9000	14
119.0000	16
119.1000	10
119.2000	8
119.3000	7
119.4000	8
119.5000	10
119.6000	9
119.7000	14
119.8000	11
119.9000	10
120.0000	14
; (Data for Range number 2)
_DRIVE='2THETA'
_STEPTIME=0.250000
_STEPSIZE=0.050000
_STEPMODE='C'
_START=25
_THETA=0.100000
_2THETA=25
_KHI=0.000000
_PHI=0.000000
_X=0.000000
_Y=0.000000
_Z=0.000000
_DIVERGENCE=1.000000
_ANTISCATTER=1.000000
_DETECTOR=1
; S.C.
_HV=800
_GAIN=2.000000
_LLD=0.700000
_ULD=3.000000
_DETECTORSLIT='unkn'
_AUX1=0.000000
_AUX2=0.000000
_AUX3=0.000000
_TIMESTARTED=436
_TEMPERATURE=26.84
_TEMP_RATE=0.000000
_TEMP_DELAY=0.000000
_KV=45
_MA=40
_RANGE_WL=1.540600
_3DPLANE=0
_2THETACOUNTS
25.0000	68
25.1000	60
25.2000	44
25.3000	48
25.4000	61
25.5000	65
25.6000	64
25.7000	53
25.8000	65
25.9000	62
26.0000	55
26.1000	59
26.2000	63
26.3000	48
26.4000	61
26.5000	48
26.6000	60
26.7000	53
26.8000	71
26.9000	65
27.0000	38
27.1000	47
27.2000	67
27.3000	41
27.4000	66
27.5000	50
27.6000	47
27.7000	49
27.8000	46
27.9000	49
28.0000	39
28.1000	46
28.2000	61
28.3000	46
28.4000	54
28.5000	50
28.6000	49
28.7000	50
28.8000	50
28.9000	48
29.0000	39
29.1000	48
29.2000	53
29.3000	53
29.4000	47
29.5000	36
29.6000	51
29.7000	48
29.8000	39
29.9000	51
30.0000	45
30.1000	41
30.2000	45
30.3000	47
30.4000	46
30.5000	32
30.6000	49
30.7000	49
30.8000	38
30.9000	38
31.0000	34
31.1000	38
31.2000	45
31.3000	42
31.4000	46
31.5000	45
31.6000	47
31.7000	42
31.8000	53
31.9000	53
32.0000	37
32.1000	52
32.2000	52
32.3000	40
32.4000	36
32.5000	41
32.6000	45
32.7000	27
32.8000	29
32.9000	30
33.0000	33
33.1000	39
33.2000	38
33.3000	46
33.4000	42
33.5000	48
33.6000	57
33.7000	67
33.8000	81
33.9000	102
34.0000	82
34.1000	60
34.2000	49
34.3000	42
34.4000	61
34.5000	72
34.6000	60
34.7000	64
34.8000	59
34.9000	42
35.0000	47
35.1000	38
35.2000	45
35.3000	55
35.4000	53
35.5000	46
35.6000	34
35.7000	49
35.8000	52
35.9000	33
36.0000	54
36.1000	52
36.2000	67
36.3000	67
36.4000	61
36.5000	73
36.6000	56
36.7000	48
36.8000	36
36.9000	36
37.0000	43
37.1000	29
37.2000	37
37.3000	37
37.4000	41
37.5000	33
37.6000	40
37.7000	43
37.8000	59
37.9000	89
38.0000	92
38.1000	82
38.2000	42
38.3000	43
38.4000	43
38.5000	18
38.6000	39
38.7000	22
38.8000	25
38.9000	30
39.0000	31
39.1000	26
39.2000	26
39.3000	24
39.4000	27
39.5000	33
39.6000	21
39.7000	20
39.8000	32
39.9000	28
40.0000	25
40.1000	19
40.2000	20
40.3000	17
40.4000	23
40.5000	27
40.6000	21
40.7000	27
40.8000	22
40.9000	26
41.0000	19
41.1000	26
41.2000	15
41.3000	24
41.4000	19
41.5000	23
41.6000	30
41.7000	21
41.8000	23
41.9000	22
42.0000	18
42.1000	22
42.2000	21
42.3000	32
42.4000	25
42.5000	22
42.6000	33
42.7000	23
42.8000	29
42.9000	18
43.0000	20
43.1000	28
43.2000	23
43.3000	25
43.4000	28
43.5000	17
43.6000	17
43.7000	27
43.8000	20
43.9000	24
44.0000	28
44.1000	22
44.2000	27
44.3000	16
44.4000	23
44.5000	27
44.6000	20
44.7000	22
44.8000	13
44.9000	18
45.0000	21
45.1000	19
45.2000	20
45.3000	15
45.4000	14
45.5000	23
45.6000	21
45.7000	15
45.8000	31
45.9000	18
46.0000	18
46.1000	23
46.2000	24
46.3000	23
46.4000	18
46.5000	22
46.6000	9
46.7000	15
46.8000	20
46.9000	22
47.0000	20
47.1000	19
47.2000	24
47.3000	19
47.4000	19
47.5000	23
47.6000	17
47.7000	28
47.8000	31
47.9000	31
48.0000	28
48.1000	16
48.2000	17
48.3000	24
48.4000	21
48.5000	23
48.6000	15
48.7000	22
48.8000	14
48.9000	13
49.0000	21
49.1000	14
49.2000	22
49.3000	21
49.4000	24
49.5000	16
49.6000	23
49.7000	18
49.8000	13
49.9000	22
50.0000	18
50.1000	12
50.2000	18
50.3000	6
50.4000	17
50.5000	17
50.6000	15
50.7000	23
50.8000	25
50.9000	22
51.0000	20
51.1000	17
51.2000	27
51.3000	21
51.4000	34
51.5000	26
51.6000	57
51.7000	75
51.8000	94
51.9000	84
52.0000	62
52.1000	36
52.2000	28
52.3000	17
52.4000	23
52.5000	19
52.6000	22
52.7000	24
52.8000	23
52.9000	17
53.0000	21
53.1000	15
53.2000	14
53.3000	14
53.4000	17
53.5000	14
53.6000	20
53.7000	19
53.8000	13
53.9000	24
54.0000	21
54.1000	12
54.2000	17
54.3000	12
54.4000	15
54.5000	21
54.6000	19
54.7000	20
54.8000	26
54.9000	25
55.0000	31
55.1000	26
55.2000	26
55.3000	11
55.4000	10
55.5000	17
55.6000	28
55.7000	17
55.8000	18
55.9000	26
56.0000	19
56.1000	24
56.2000	15
56.3000	18
56.4000	22
56.5000	30
56.6000	27
56.7000	33
56.8000	22
56.9000	22
57.0000	18
57.1000	20
57.2000	25
57.3000	22
57.4000	15
57.5000	19
57.6000	18
57.7000	19
57.8000	18
57.9000	22
58.0000	21
58.1000	13
58.2000	13
58.3000	22
58.4000	16
58.5000	10
58.6000	12
58.7000	24
58.8000	17
58.9000	25
59.0000	16
59.1000	13
59.2000	20
59.3000	22
59.4000	11
59.5000	16
59.6000	14
59.7000	16
59.8000	17
59.9000	11
60.0000	11
60.1000	20
60.2000	17
60.3000	15
60.4000	14
60.5000	10
60.6000	12
60.7000	13
60.8000	8
60.9000	17
61.0000	15
61.1000	26
61.2000	15
61.3000	11
61.4000	18
61.5000	25
61.6000	28
61.7000	33
61.8000	44
61.9000	56
62.0000	32
62.1000	36
62.2000	27
62.3000	29
62.4000	33
62.5000	20
62.6000	29
62.7000	20
62.8000	28
62.9000	21
63.0000	22
63.1000	25
63.2000	20
63.3000	18
63.4000	18
63.5000	22
63.6000	15
63.7000	18
63.8000	14
63.9000	12
64.0000	13
64.1000	16
64.2000	24
64.3000	18
64.4000	17
64.5000	25
64.6000	16
64.7000	23
64.8000	23
64.9000	18
65.0000	20
65.1000	14
65.2000	18
65.3000	12
65.4000	12
65.5000	13
65.6000	18
65.7000	17
65.8000	25
65.9000	24
66.0000	31
66.1000	23
66.2000	19
66.3000	19
66.4000	16
66.5000	21
66.6000	17
66.7000	14
66.8000	13
66.9000	17
67.0000	10
67.1000	10
67.2000	14
67.3000	12
67.4000	23
67.5000	17
67.6000	12
67.7000	12
67.8000	19
67.9000	13
68.0000	26
68.1000	15
68.2000	16
68.3000	24
68.4000	19
68.5000	15
68.6000	18
68.7000	19
68.8000	11
68.9000	12
69.0000	15
69.1000	15
69.2000	11
69.3000	21
69.4000	22
69.5000	12
69.6000	11
69.7000	14
69.8000	11
69.9000	16
70.0000	18
70.1000	16
70.2000	11
70.3000	17
70.4000	15
70.5000	13
70.6000	15
70.7000	18
70.8000	12
70.9000	9
71.0000	17
71.1000	16
71.2000	17
71.3000	12
71.4000	13
71.5000	19
71.6000	12
71.7000	14
71.8000	12
71.9000	14
72.0000	10
72.1000	12
72.2000	11
72.3000	19
72.4000	12
72.5000	12
72.6000	17
72.7000	18
72.8000	11
72.9000	22
73.0000	16
73.1000	20
73.2000	14
73.3000	17
73.4000	17
73.5000	23
73.6000	12
73.7000	15
73.8000	8
73.9000	20
74.0000	9
74.1000	22
74.2000	18
74.3000	12
74.4000	20
74.5000	12
74.6000	14
74.7000	14
74.8000	15
74.9000	6
75.0000	10
75.1000	11
75.2000	9
75.3000	15
75.4000	10
75.5000	14
75.6000	14
75.7000	15
75.8000	12
75.9000	18
76.0000	9
76.1000	10
76.2000	8
76.3000	14
76.4000	15
76.5000	12
76.6000	19
76.7000	10
76.8000	9
76.9000	9
77.0000	15
77.1000	10
77.2000	21
77.3000	9
77.4000	17
77.5000	20
77.6000	12
77.7000	6
77.8000	11
77.9000	11
78.0000	12
78.1000	12
78.2000	15
78.3000	13
78.4000	10
78.5000	17
78.6000	20
78.7000	22
78.8000	17
78.9000	26
79.0000	16
79.1000	16
79.2000	19
79.3000	13
79.4000	15
79.5000	15
79.6000	13
79.7000	13
79.8000	18
79.9000	8
80.0000	10
80.1000	7
80.2000	21
80.3000	9
80.4000	9
80.5000	7
80.6000	10
80.7000	7
80.8000	13
80.9000	13
81.0000	12
81.1000	15
81.2000	14
81.3000	10
81.4000	11
81.5000	12
81.6000	11
81.7000	12
81.8000	11
81.9000	18
82.0000	19
82.1000	7
82.2000	18
82.3000	17
82.4000	16
82.5000	8
82.6000	5
82.7000	9
82.8000	14
82.9000	14
83.0000	17
83.1000	13
83.2000	16
83.3000	11
83.4000	18
83.5000	13
83.6000	18
83.7000	24
83.8000	13
83.9000	19
84.0000	17
84.1000	13
84.2000	13
84.3000	15
84.4000	10
84.5000	15
84.6000	12
84.7000	18
84.8000	6
84.9000	8
85.0000	15
85.1000	13
85.2000	7
85.3000	14
85.4000	6
85.5000	8
85.6000	9
85.7000	10
85.8000	11
85.9000	19
86.0000	10
86.1000	7
86.2000	5
86.3000	13
86.4000	12
86.5000	14
86.6000	11
86.7000	19
86.8000	11
86.9000	15
87.0000	7
87.1000	19
87.2000	18
87.3000	13
87.4000	15
87.5000	16
87.6000	16
87.7000	16
87.8000	13
87.9000	15
88.0000	18
88.1000	8
88.2000	11
88.3000	8
88.4000	10
88.5000	13
88.6000	9
88.7000	12
88.8000	16
88.9000	17
89.0000	9
89.1000	8
89.2000	10
89.3000	12
89.4000	12
89.5000	16
89.6000	19
89.7000	21
89.8000	25
89.9000	15
90.0000	14
90.1000	16
90.2000	8
90.3000	20
90.4000	19
90.5000	21
90.6000	16
90.7000	9
90.8000	16
90.9000	25
91.0000	13
91.1000	17
91.2000	10
91.3000	20
91.4000	10
91.5000	17
91.6000	8
91.7000	17
91.8000	7
91.9000	8
92.0000	12
92.1000	4
92.2000	8
92.3000	6
92.4000	12
92.5000	4
92.6000	9
92.7000	11
92.8000	10
92.9000	13
93.0000	13
93.1000	11
93.2000	13
93.3000	11
93.4000	12
93.5000	14
93.6000	17
93.7000	17
93.8000	6
93.9000	15
94.0000	11
94.1000	13
94.2000	10
94.3000	9
94.4000	13
94.5000	9
94.6000	14
94.7000	12
94.8000	12
94.9000	12
95.0000	16
95.1000	7
95.2000	13
95.3000	16
95.4000	13
95.5000	15
95.6000	12
95.7000	12
95.8000	13
95.9000	13
96.0000	15
96.1000	13
96.2000	10
96.3000	12
96.4000	21
96.5000	9
96.6000	9
96.7000	13
96.8000	9
96.9000	10
97.0000	11
97.1000	13
97.2000	13
97.3000	12
97.4000	12
97.5000	11
97.6000	16
97.7000	11
97.8000	13
97.9000	11
98.0000	14
98.1000	15
98.2000	14
98.3000	4
98.4000	9
98.5000	4
98.6000	9
98.7000	8
98.8000	5
98.9000	5
99.0000	9
99.1000	10
99.2000	7
99.3000	15
99.4000	9
99.5000	9
99.6000	11
99.7000	12
99.8000	8
99.9000	11
100.0000	6
100.1000	6
100.2000	7
100.3000	9
100.4000	12
100.5000	11
100.6000	11
100.7000	13
100.8000	9
100.9000	6
101.0000	14
101.1000	4
101.2000	12
101.3000	11
101.4000	13
101.5000	8
101.6000	7
101.7000	16
101.8000	11
101.9000	14
102.0000	8
102.1000	15
102.2000	13
102.3000	13
102.4000	6
102.5000	10
102.6000	8
102.7000	9
102.8000	17
102.9000	12
103.0000	8
103.1000	7
103.2000	15
103.3000	13
103.4000	9
103.5000	17
103.6000	10
103.7000	10
103.8000	10
103.9000	10
104.0000	10
104.1000	5
104.2000	6
104.3000	10
104.4000	12
104.5000	7
104.6000	18
104.7000	14
104.8000	13
104.9000	7
105.0000	5
105.1000	9
105.2000	17
105.3000	11
105.4000	9
105.5000	13
105.6000	9
105.7000	17
105.8000	7
105.9000	14
106.0000	9
106.1000	13
106.2000	9
106.3000	9
106.4000	11
106.5000	15
106.6000	11
106.7000	13
106.8000	11
106.9000	11
107.0000	12
107.1000	10
107.2000	16
107.3000	13
107.4000	14
107.5000	6
107.6000	14
107.7000	6
107.8000	22
107.9000	10
108.0000	11
108.1000	20
108.2000	23
108.3000	13
108.4000	26
108.5000	18
108.6000	21
108.7000	22
108.8000	12
108.9000	10
109.0000	12
109.1000	12
109.2000	12
109.3000	16
109.4000	15
109.5000	16
109.6000	16
109.7000	12
109.8000	13
109.9000	16
110.0000	13
110.1000	13
110.2000	11
110.3000	12
110.4000	19
110.5000	8
110.6000	16
110.7000	10
110.8000	9
110.9000	7
111.0000	13
111.1000	11
111.2000	10
111.3000	11
111.4000	16
111.5000	9
111.6000	10
111.7000	16
111.8000	14
111.9000	20
112.0000	8
112.1000	14
112.2000	14
112.3000	12
112.4000	15
112.5000	17
112.6000	6
112.7000	18
112.8000	13
112.9000	11
113.0000	10
113.1000	10
113.2000	12
113.3000	8
113.4000	9
113.5000	10
113.6000	11
113.7000	8
113.8000	14
113.9000	7
114.0000	9
114.1000	14
114.2000	21
114.3000	12
114.4000	16
114.5000	15
114.6000	18
114.7000	17
114.8000	10
114.9000	14
115.0000	16
115.1000	20
115.2000	14
115.3000	12
115.4000	14
115.5000	15
115.6000	18
115.7000	10
115.8000	21
115.9000	19
116.0000	29
116.1000	12
116.2000	15
116.3000	23
116.4000	20
116.5000	19
116.6000	17
116.7000	19
116.8000	16
116.9000	15
117.0000	8
117.1000	21
117.2000	9
117.3000	8
117.4000	16
117.5000	13
117.6000	18
117.7000	10
117.8000	12
117.9000	13
118.0000	12
118.1000	16
118.2000	13
118.3000	17
118.4000	9
118.5000	15
118.6000	14
118.7000	11
118.8000	10
118.9000	15
119.0000	9
119.1000	13
119.2000	11
119.3000	11
119.4000	12
119.5000	9
119.6000	9
119.7000	11
119.8000	11
119.9000	10
120.0000	5
; (Data for Range number 3)
_DRIVE='2THETA'
_STEPTIME=0.250000
_STEPSIZE=0.050000
_STEPMODE='C'
_START=25
_THETA=0.150000
_2THETA=25
_KHI=0.000000
_PHI=0.000000
_X=0.000000
_Y=0.000000
_Z=0.000000
_DIVERGENCE=1.000000
_ANTISCATTER=1.000000
_DETECTOR=1
; S.C.
_HV=800
_GAIN=2.000000
_LLD=0.700000
_ULD=3.000000
_DETECTORSLIT='unkn'
_AUX1=0.000000
_AUX2=0.000000
_AUX3=0.000000
_TIMESTARTED=842
_TEMPERATURE=26.84
_TEMP_RATE=0.000000
_TEMP_DELAY=0.000000
_KV=45
_MA=40
_RANGE_WL=1.540600
_3DPLANE=0
_2THETACOUNTS
25.0000	66
25.1000	45
25.2000	62
25.3000	58
25.4000	41
25.5000	61
25.6000	52
25.7000	43
25.8000	46
25.9000	46
26.0000	52
26.1000	74
26.2000	59
26.3000	55
26.4000	49
26.5000	72
26.6000	67
26.7000	65
26.8000	70
26.9000	55
27.0000	60
27.1000	64
27.2000	57
27.3000	53
27.4000	48
27.5000	36
27.6000	61
27.7000	53
27.8000	49
27.9000	54
28.0000	56
28.1000	39
28.2000	51
28.3000	44
28.4000	43
28.5000	45
28.6000	58
28.7000	51
28.8000	40
28.9000	37
29.0000	45
29.1000	53
29.2000	45
29.3000	50
29.4000	38
29.5000	33
29.6000	43
29.7000	45
29.8000	46
29.9000	51
30.0000	55
30.1000	42
30.2000	37
30.3000	59
30.4000	48
30.5000	47
30.6000	51
30.7000	29
30.8000	49
30.9000	42
31.0000	49
31.1000	32
31.2000	37
31.3000	37
31.4000	55
31.5000	46
31.6000	43
31.7000	48
31.8000	42
31.9000	60
32.0000	51
32.1000	41
32.2000	37
32.3000	36
32.4000	43
32.5000	50
32.6000	41
32.7000	33
32.8000	41
32.9000	41
33.0000	47
33.1000	38
33.2000	30
33.3000	37
33.4000	41
33.5000	35
33.6000	61
33.7000	51
33.8000	88
33.9000	67
34.0000	68
34.1000	48
34.2000	47
34.3000	52
34.4000	43
34.5000	46
34.6000	54
34.7000	55
34.8000	50
34.9000	47
35.0000	57
35.1000	51
35.2000	47
35.3000	43
35.4000	51
35.5000	41
35.6000	41
35.7000	56
35.8000	53
35.9000	57
36.0000	62
36.1000	49
36.2000	58
36.3000	72
36.4000	79
36.5000	60
36.6000	38
36.7000	33
36.8000	41
36.9000	39
37.0000	33
37.1000	29
37.2000	42
37.3000	30
37.4000	38
37.5000	39
37.6000	43
37.7000	51
37.8000	83
37.9000	78
38.0000	100
38.1000	82
38.2000	49
38.3000	26
38.4000	24
38.5000	40
38.6000	25
38.7000	21
38.8000	23
38.9000	18
39.0000	22
39.1000	32
39.2000	19
39.3000	18
39.4000	34
39.5000	36
39.6000	20
39.7000	21
39.8000	23
39.9000	20
40.0000	23
40.1000	20
40.2000	24
40.3000	21
40.4000	20
40.5000	23
40.6000	21
40.7000	19
40.8000	20
40.9000	31
41.0000	18
41.1000	16
41.2000	17
41.3000	26
41.4000	19
41.5000	26
41.6000	25
41.7000	21
41.8000	20
41.9000	25
42.0000	18
42.1000	27
42.2000	24
42.3000	19
42.4000	29
42.5000	20
42.6000	22
42.7000	30
42.8000	19
42.9000	24
43.0000	19
43.1000	18
43.2000	26
43.3000	22
43.4000	22
43.5000	15
43.6000	21
43.7000	16
43.8000	22
43.9000	21
44.0000	16
44.1000	25
44.2000	18
44.3000	19
44.4000	25
44.5000	22
44.6000	17
44.7000	22
44.8000	22
44.9000	28
45.0000	26
45.1000	23
45.2000	23
45.3000	13
45.4000	19
45.5000	29
45.6000	20
45.7000	19
45.8000	20
45.9000	18
46.0000	15
46.1000	19
46.2000	15
46.3000	15
46.4000	12
46.5000	13
46.6000	17
46.7000	28
46.8000	20
46.9000	11
47.0000	25
47.1000	25
47.2000	18
47.3000	18
47.4000	26
47.5000	18
47.6000	25
47.7000	25
47.8000	19
47.9000	21
48.0000	24
48.1000	20
48.2000	12
48.3000	28
48.4000	12
48.5000	13
48.6000	16
48.7000	23
48.8000	15
48.9000	15
49.0000	19
49.1000	30
49.2000	15
49.3000	23
49.4000	17
49.5000	20
49.6000	23
49.7000	15
49.8000	25
49.9000	20
50.0000	14
50.1000	15
50.2000	11
50.3000	20
50.4000	34
50.5000	16
50.6000	15
50.7000	16
50.8000	15
50.9000	16
51.0000	24
51.1000	24
51.2000	21
51.3000	22
51.4000	36
51.5000	44
51.6000	62
51.7000	99
51.8000	124
51.9000	70
52.0000	61
52.1000	37
52.2000	33
52.3000	22
52.4000	19
52.5000	17
52.6000	18
52.7000	15
52.8000	18
52.9000	16
53.0000	19
53.1000	27
53.2000	17
53.3000	22
53.4000	20
53.5000	11
53.6000	7
53.7000	25
53.8000	21
53.9000	20
54.0000	19
54.1000	16
54.2000	21
54.3000	23
54.4000	20
54.5000	26
54.6000	23
54.7000	28
54.8000	29
54.9000	38
55.0000	33
55.1000	20
55.2000	14
55.3000	18
55.4000	23
55.5000	12
55.6000	19
55.7000	24
55.8000	17
55.9000	16
56.0000	24
56.1000	20
56.2000	22
56.3000	18
56.4000	23
56.5000	20
56.6000	33
56.7000	28
56.8000	35
56.9000	20
57.0000	31
57.1000	26
57.2000	26
57.3000	11
57.4000	14
57.5000	15
57.6000	13
57.7000	26
57.8000	16
57.9000	20
58.0000	16
58.1000	16
58.2000	19
58.3000	19
58.4000	19
58.5000	16
58.6000	21
58.7000	18
58.8000	17
58.9000	15
59.0000	13
59.1000	30
59.2000	19
59.3000	20
59.4000	15
59.5000	20
59.6000	12
59.7000	11
59.8000	14
59.9000	12
60.0000	21
60.1000	22
60.2000	21
60.3000	18
60.4000	14
60.5000	15
60.6000	12
60.7000	18
60.8000	11
60.9000	18
61.0000	18
61.1000	19
61.2000	25
61.3000	12
61.4000	19
61.5000	26
61.6000	33
61.7000	39
61.8000	40
61.9000	33
62.0000	28
62.1000	28
62.2000	24
62.3000	30
62.4000	22
62.5000	21
62.6000	34
62.7000	22
62.8000	30
62.9000	27
63.0000	33
63.1000	35
63.2000	26
63.3000	26
63.4000	25
63.5000	25
63.6000	16
63.7000	22
63.8000	21
63.9000	15
64.0000	14
64.1000	12
64.2000	19
64.3000	15
64.4000	18
64.5000	21
64.6000	23
64.7000	23
64.8000	22
64.9000	24
65.0000	20
65.1000	20
65.2000	16
65.3000	12
65.4000	25
65.5000	29
65.6000	21
65.7000	24
65.8000	31
65.9000	30
66.0000	23
66.1000	23
66.2000	26
66.3000	22
66.4000	15
66.5000	8
66.6000	15
66.7000	18
66.8000	16
66.9000	12
67.0000	20
67.1000	8
67.2000	19
67.3000	8
67.4000	19
67.5000	17
67.6000	14
67.7000	20
67.8000	9
67.9000	17
68.0000	19
68.1000	24
68.2000	18
68.3000	18
68.4000	20
68.5000	16
68.6000	16
68.7000	24
68.8000	20
68.9000	21
69.0000	14
69.1000	20
69.2000	19
69.3000	20
69.4000	14
69.5000	20
69.6000	12
69.7000	15
69.8000	19
69.9000	13
70.0000	14
70.1000	15
70.2000	17
70.3000	17
70.4000	18
70.5000	10
70.6000	15
70.7000	19
70.8000	19
70.9000	14
71.0000	17
71.1000	16
71.2000	15
71.3000	17
71.4000	26
71.5000	22
71.6000	22
71.7000	12
71.8000	13
71.9000	14
72.0000	17
72.1000	17
72.2000	13
72.3000	12
72.4000	11
72.5000	9
72.6000	16
72.7000	17
72.8000	11
72.9000	16
73.0000	12
73.1000	16
73.2000	8
73.3000	16
73.4000	19
73.5000	13
73.6000	21
73.7000	17
73.8000	17
73.9000	10
74.0000	11
74.1000	9
74.2000	12
74.3000	8
74.4000	16
74.5000	17
74.6000	15
74.7000	14
74.8000	12
74.9000	17
75.0000	13
75.1000	13
75.2000	14
75.3000	15
75.4000	19
75.5000	20
75.6000	11
75.7000	12
75.8000	18
75.9000	13
76.0000	15
76.1000	9
76.2000	19
76.3000	16
76.4000	7
76.5000	21
76.6000	7
76.7000	7
76.8000	11
76.9000	10
77.0000	19
77.1000	12
77.2000	15
77.3000	11
77.4000	5
77.5000	16
77.6000	11
77.7000	9
77.8000	20
77.9000	18
78.0000	13
78.1000	13
78.2000	13
78.3000	12
78.4000	22
78.5000	23
78.6000	29
78.7000	27
78.8000	30
78.9000	34
79.0000	27
79.1000	13
79.2000	15
79.3000	12
79.4000	16
79.5000	14
79.6000	14
79.7000	12
79.8000	14
79.9000	12
80.0000	17
80.1000	6
80.2000	16
80.3000	15
80.4000	12
80.5000	15
80.6000	10
80.7000	13
80.8000	9
80.9000	7
81.0000	11
81.1000	19
81.2000	15
81.3000	9
81.4000	17
81.5000	16
81.6000	11
81.7000	8
81.8000	11
81.9000	8
82.0000	10
82.1000	4
82.2000	9
82.3000	19
82.4000	11
82.5000	8
82.6000	10
82.7000	11
82.8000	13
82.9000	17
83.0000	13
83.1000	13
83.2000	11
83.3000	9
83.4000	18
83.5000	16
83.6000	20
83.7000	22
83.8000	20
83.9000	22
84.0000	19
84.1000	14
84.2000	11
84.3000	12
84.4000	11
84.5000	12
84.6000	10
84.7000	10
84.8000	11
84.9000	9
85.0000	18
85.1000	11
85.2000	13
85.3000	14
85.4000	12
85.5000	14
85.6000	17
85.7000	6
85.8000	7
85.9000	17
86.0000	16
86.1000	11
86.2000	15
86.3000	16
86.4000	20
86.5000	15
86.6000	18
86.7000	8
86.8000	17
86.9000	12
87.0000	16
87.1000	20
87.2000	15
87.3000	17
87.4000	13
87.5000	21
87.6000	15
87.7000	14
87.8000	20
87.9000	15
88.0000	19
88.1000	9
88.2000	11
88.3000	19
88.4000	9
88.5000	9
88.6000	11
88.7000	12
88.8000	18
88.9000	10
89.0000	16
89.1000	22
89.2000	16
89.3000	19
89.4000	18
89.5000	15
89.6000	15
89.7000	21
89.8000	12
89.9000	25
90.0000	27
90.1000	16
90.2000	13
90.3000	20
90.4000	18
90.5000	15
90.6000	15
90.7000	18
90.8000	23
90.9000	15
91.0000	18
91.1000	14
91.2000	12
91.3000	10
91.4000	10
91.5000	13
91.6000	12
91.7000	9
91.8000	18
91.9000	11
92.0000	12
92.1000	10
92.2000	13
92.3000	10
92.4000	8
92.5000	8
92.6000	8
92.7000	9
92.8000	18
92.9000	9
93.0000	18
93.1000	12
93.2000	18
93.3000	13
93.4000	16
93.5000	12
93.6000	16
93.7000	8
93.8000	9
93.9000	9
94.0000	14
94.1000	14
94.2000	23
94.3000	14
94.4000	14
94.5000	13
94.6000	10
94.7000	16
94.8000	8
94.9000	5
95.0000	11
95.1000	12
95.2000	10
95.3000	11
95.4000	14
95.5000	11
95.6000	18
95.7000	16
95.8000	18
95.9000	8
96.0000	10
96.1000	11
96.2000	16
96.3000	11
96.4000	13
96.5000	14
96.6000	17
96.7000	7
96.8000	9
96.9000	10
97.0000	8
97.1000	8
97.2000	9
97.3000	10
97.4000	3
97.5000	9
97.6000	16
97.7000	11
97.8000	7
97.9000	8
98.0000	10
98.1000	17
98.2000	11
98.3000	11
98.4000	7
98.5000	9
98.6000	10
98.7000	9
98.8000	10
98.9000	12
99.0000	8
99.1000	19
99.2000	13
99.3000	13
99.4000	14
99.5000	11
99.6000	10
99.7000	14
99.8000	15
99.9000	13
100.0000	9
100.1000	8
100.2000	11
100.3000	10
100.4000	12
100.5000	5
100.6000	15
100.7000	12
100.8000	11
100.9000	10
101.0000	13
101.1000	11
101.2000	5
101.3000	9
101.4000	9
101.5000	11
101.6000	5
101.7000	10
101.8000	15
101.9000	11
102.0000	15
102.1000	9
102.2000	6
102.3000	13
102.4000	10
102.5000	12
102.6000	12
102.7000	14
102.8000	10
102.9000	19
103.0000	14
103.1000	5
103.2000	12
103.3000	14
103.4000	11
103.5000	13
103.6000	8
103.7000	15
103.8000	11
103.9000	11
104.0000	13
104.1000	9
104.2000	16
104.3000	9
104.4000	9
104.5000	12
104.6000	13
104.7000	11
104.8000	7
104.9000	15
105.0000	13
105.1000	10
105.2000	10
105.3000	14
105.4000	13
105.5000	12
105.6000	11
105.7000	9
105.8000	16
105.9000	7
106.0000	14
106.1000	12
106.2000	16
106.3000	15
106.4000	17
106.5000	15
106.6000	5
106.7000	8
106.8000	11
106.9000	11
107.0000	13
107.1000	16
107.2000	14
107.3000	11
107.4000	16
107.5000	15
107.6000	11
107.7000	16
107.8000	19
107.9000	10
108.0000	10
108.1000	17
108.2000	13
108.3000	14
108.4000	23
108.5000	20
108.6000	18
108.7000	23
108.8000	17
108.9000	14
109.0000	18
109.1000	14
109.2000	15
109.3000	14
109.4000	7
109.5000	12
109.6000	18
109.7000	16
109.8000	16
109.9000	14
110.0000	7
110.1000	17
110.2000	19
110.3000	10
110.4000	13
110.5000	17
110.6000	7
110.7000	11
110.8000	12
110.9000	6
111.0000	11
111.1000	16
111.2000	9
111.3000	9
111.4000	8
111.5000	11
111.6000	12
111.7000	10
111.8000	9
111.9000	15
112.0000	13
112.1000	9
112.2000	9
112.3000	10
112.4000	12
112.5000	11
112.6000	13
112.7000	15
112.8000	9
112.9000	13
113.0000	11
113.1000	17
113.2000	15
113.3000	11
113.4000	15
113.5000	21
113.6000	11
113.7000	13
113.8000	10
113.9000	12
114.0000	15
114.1000	10
114.2000	15
114.3000	13
114.4000	12
114.5000	10
114.6000	12
114.7000	18
114.8000	14
114.9000	16
115.0000	14
115.1000	10
115.2000	19
115.3000	25
115.4000	16
115.5000	10
115.6000	13
115.7000	13
115.8000	30
115.9000	29
116.0000	22
116.1000	23
116.2000	17
116.3000	25
116.4000	24
116.5000	19
116.6000	20
116.7000	18
116.8000	23
116.9000	15
117.0000	13
117.1000	9
117.2000	9
117.3000	4
117.4000	20
117.5000	13
117.6000	18
117.7000	13
117.8000	11
117.9000	4
118.0000	15
118.1000	11
118.2000	19
118.3000	10
118.4000	13
118.5000	16
118.6000	7
118.7000	14
118.8000	10
118.9000	10
119.0000	15
119.1000	17
119.2000	7
119.3000	7
119.4000	6
119.5000	10
119.6000	16
119.7000	14
119.8000	10
119.9000	13
120.0000	11
; (Data for Range number 4)
_DRIVE='2THETA'
_STEPTIME=0.250000
_STEPSIZE=0.050000
_STEPMODE='C'
_START=25
_THETA=0.200000
_2THETA=25
_KHI=0.000000
_PHI=0.000000
_X=0.000000
_Y=0.000000
_Z=0.000000
_DIVERGENCE=1.000000
_ANTISCATTER=1.000000
_DETECTOR=1
; S.C.
_HV=800
_GAIN=2.000000
_LLD=0.700000
_ULD=3.000000
_DETECTORSLIT='unkn'
_AUX1=0.000000
_AUX2=0.000000
_AUX3=0.000000
_TIMESTARTED=1248
_TEMPERATURE=26.84
_TEMP_RATE=0.000000
_TEMP_DELAY=0.000000
_KV=45
_MA=40
_RANGE_WL=1.540600
_3DPLANE=0
_2THETACOUNTS
25.0000	54
25.1000	63
25.2000	62
25.3000	54
25.4000	50
25.5000	52
25.6000	63
25.7000	54
25.8000	62
25.9000	46
26.0000	67
26.1000	51
26.2000	55
26.3000	58
26.4000	69
26.5000	61
26.6000	73
26.7000	57
26.8000	56
26.9000	63
27.0000	52
27.1000	56
27.2000	58
27.3000	50
27.4000	50
27.5000	55
27.6000	53
27.7000	38
27.8000	43
27.9000	49
28.0000	46
28.1000	57
28.2000	44
28.3000	49
28.4000	44
28.5000	40
28.6000	40
28.7000	46
28.8000	42
28.9000	44
29.0000	51
29.1000	44
29.2000	36
29.3000	51
29.4000	50
29.5000	52
29.6000	49
29.7000	56
29.8000	35
29.9000	43
30.0000	41
30.1000	52
30.2000	55
30.3000	51
30.4000	56
30.5000	54
30.6000	45
30.7000	50
30.8000	35
30.9000	54
31.0000	49
31.1000	40
31.2000	32
31.3000	40
31.4000	43
31.5000	40
31.6000	44
31.7000	63
31.8000	59
31.9000	55
32.0000	62
32.1000	40
32.2000	42
32.3000	41
32.4000	45
32.5000	28
32.6000	26
32.7000	38
32.8000	45
32.9000	29
33.0000	41
33.1000	28
33.2000	49
33.3000	40
33.4000	49
33.5000	47
33.6000	59
33.7000	83
33.8000	98
33.9000	100
34.0000	73
34.1000	58
34.2000	58
34.3000	50
34.4000	45
34.5000	48
34.6000	61
34.7000	51
34.8000	55
34.9000	43
35.0000	56
35.1000	45
35.2000	35
35.3000	52
35.4000	60
35.5000	37
35.6000	45
35.7000	61
35.8000	43
35.9000	50
36.0000	53
36.1000	60
36.2000	63
36.3000	64
36.4000	88
36.5000	66
36.6000	44
36.7000	44
36.8000	46
36.9000	34
37.0000	38
37.1000	33
37.2000	25
37.3000	33
37.4000	32
37.5000	47
37.6000	64
37.7000	70
37.8000	96
37.9000	117
38.0000	106
38.1000	85
38.2000	56
38.3000	45
38.4000	33
38.5000	35
38.6000	31
38.7000	30
38.8000	23
38.9000	25
39.0000	29
39.1000	24
39.2000	22
39.3000	29
39.4000	16
39.5000	23
39.6000	26
39.7000	25
39.8000	31
39.9000	23
40.0000	23
40.1000	27
40.2000	18
40.3000	24
40.4000	20
40.5000	17
40.6000	25
40.7000	26
40.8000	23
40.9000	22
41.0000	23
41.1000	13
41.2000	20
41.3000	28
41.4000	33
41.5000	25
41.6000	26
41.7000	29
41.8000	17
41.9000	26
42.0000	29
42.1000	14
42.2000	22
42.3000	33
42.4000	16
42.5000	27
42.6000	25
42.7000	23
42.8000	24
42.9000	21
43.0000	24
43.1000	17
43.2000	18
43.3000	19
43.4000	21
43.5000	21
43.6000	17
43.7000	17
43.8000	25
43.9000	21
44.0000	18
44.1000	18
44.2000	20
44.3000	14
44.4000	22
44.5000	19
44.6000	21
44.7000	20
44.8000	28
44.9000	23
45.0000	25
45.1000	17
45.2000	23
45.3000	21
45.4000	21
45.5000	20
45.6000	15
45.7000	28
45.8000	26
45.9000	29
46.0000	20
46.1000	15
46.2000	18
46.3000	26
46.4000	23
46.5000	24
46.6000	12
46.7000	17
46.8000	19
46.9000	19
47.0000	27
47.1000	17
47.2000	27
47.3000	19
47.4000	20
47.5000	29
47.6000	24
47.7000	27
47.8000	30
47.9000	23
48.0000	29
48.1000	22
48.2000	15
48.3000	17
48.4000	25
48.5000	23
48.6000	14
48.7000	9
48.8000	12
48.9000	13
49.0000	17
49.1000	22
49.2000	16
49.3000	24
49.4000	21
49.5000	29
49.6000	20
49.7000	17
49.8000	18
49.9000	18
50.0000	19
50.1000	18
50.2000	17
50.3000	24
50.4000	24
50.5000	28
50.6000	19
50.7000	11
50.8000	11
50.9000	18
51.0000	19
51.1000	19
51.2000	24
51.3000	32
51.4000	36
51.5000	67
51.6000	89
51.7000	126
51.8000	126
51.9000	108
52.0000	60
52.1000	45
52.2000	24
52.3000	26
52.4000	18
52.5000	15
52.6000	23
52.7000	20
52.8000	14
52.9000	26
53.0000	22
53.1000	25
53.2000	17
53.3000	20
53.4000	20
53.5000	26
53.6000	21
53.7000	16
53.8000	17
53.9000	18
54.0000	18
54.1000	21
54.2000	11
54.3000	18
54.4000	23
54.5000	18
54.6000	25
54.7000	29
54.8000	34
54.9000	32
55.0000	26
55.1000	24
55.2000	10
55.3000	19
55.4000	16
55.5000	18
55.6000	24
55.7000	12
55.8000	26
55.9000	15
56.0000	20
56.1000	16
56.2000	19
56.3000	20
56.4000	20
56.5000	24
56.6000	36
56.7000	44
56.8000	24
56.9000	21
57.0000	23
57.1000	25
57.2000	18
57.3000	24
57.4000	14
57.5000	26
57.6000	17
57.7000	17
57.8000	28
57.9000	16
58.0000	17
58.1000	19
58.2000	16
58.3000	16
58.4000	27
58.5000	20
58.6000	13
58.7000	21
58.8000	18
58.9000	14
59.0000	16
59.1000	13
59.2000	15
59.3000	12
59.4000	26
59.5000	13
59.6000	20
59.7000	15
59.8000	17
59.9000	30
60.0000	12
60.1000	20
60.2000	16
60.3000	9
60.4000	17
60.5000	20
60.6000	20
60.7000	21
60.8000	28
60.9000	18
61.0000	14
61.1000	29
61.2000	13
61.3000	16
61.4000	18
61.5000	23
61.6000	42
61.7000	42
61.8000	52
61.9000	40
62.0000	40
62.1000	36
62.2000	40
62.3000	35
62.4000	21
62.5000	28
62.6000	27
62.7000	24
62.8000	26
62.9000	27
63.0000	29
63.1000	24
63.2000	30
63.3000	14
63.4000	30
63.5000	20
63.6000	25
63.7000	21
63.8000	23
63.9000	18
64.0000	18
64.1000	28
64.2000	19
64.3000	15
64.4000	19
64.5000	18
64.6000	14
64.7000	18
64.8000	14
64.9000	19
65.0000	27
65.1000	20
65.2000	13
65.3000	19
65.4000	22
65.5000	14
65.6000	19
65.7000	25
65.8000	32
65.9000	30
66.0000	26
66.1000	24
66.2000	18
66.3000	25
66.4000	18
66.5000	11
66.6000	15
66.7000	19
66.8000	20
66.9000	14
67.0000	13
67.1000	12
67.2000	16
67.3000	14
67.4000	16
67.5000	13
67.6000	19
67.7000	13
67.8000	21
67.9000	17
68.0000	21
68.1000	24
68.2000	22
68.3000	26
68.4000	23
68.5000	20
68.6000	14
68.7000	19
68.8000	12
68.9000	16
69.0000	22
69.1000	18
69.2000	19
69.3000	20
69.4000	13
69.5000	16
69.6000	15
69.7000	11
69.8000	12
69.9000	15
70.0000	10
70.1000	17
70.2000	19
70.3000	14
70.4000	8
70.5000	18
70.6000	12
70.7000	12
70.8000	15
70.9000	20
71.0000	19
71.1000	15
71.2000	23
71.3000	24
71.4000	16
71.5000	20
71.6000	14
71.7000	11
71.8000	16
71.9000	18
72.0000	10
72.1000	14
72.2000	12
72.3000	20
72.4000	15
72.5000	12
72.6000	14
72.7000	18
72.8000	15
72.9000	12
73.0000	14
73.1000	16
73.2000	9
73.3000	14
73.4000	15
73.5000	12
73.6000	23
73.7000	21
73.8000	13
73.9000	18
74.0000	19
74.1000	13
74.2000	11
74.3000	16
74.4000	10
74.5000	9
74.6000	21
74.7000	15
74.8000	11
74.9000	7
75.0000	16
75.1000	9
75.2000	16
75.3000	10
75.4000	11
75.5000	10
75.6000	19
75.7000	12
75.8000	5
75.9000	14
76.0000	11
76.1000	9
76.2000	15
76.3000	13
76.4000	21
76.5000	7
76.6000	10
76.7000	15
76.8000	22
76.9000	17
77.0000	16
77.1000	12
[...]
35.8000	11
35.9000	17
36.0000	19
36.1000	15
36.2000	10
36.3000	13
36.4000	23
36.5000	8
36.6000	12
36.7000	12
36.8000	13
36.9000	16
37.0000	14
37.1000	10
37.2000	14
37.3000	21
37.4000	17
37.5000	8
37.6000	12
37.7000	15
37.8000	12
37.9000	12
38.0000	12
38.1000	10
38.2000	20
38.3000	12
38.4000	12
38.5000	9
38.6000	13
38.7000	13
38.8000	8
38.9000	12
39.0000	11
39.1000	9
39.2000	19
39.3000	15
39.4000	10
39.5000	7
39.6000	16
39.7000	8
39.8000	11
39.9000	6
40.0000	8
40.1000	13
40.2000	11
40.3000	12
40.4000	18
40.5000	13
40.6000	11
40.7000	7
40.8000	12
40.9000	12
41.0000	14
41.1000	20
41.2000	6
41.3000	12
41.4000	11
41.5000	12
41.6000	13
41.7000	13
41.8000	6
41.9000	15
42.0000	13
42.1000	16
42.2000	7
42.3000	9
42.4000	9
42.5000	11
42.6000	9
42.7000	13
42.8000	6
42.9000	15
43.0000	12
43.1000	8
43.2000	10
43.3000	11
43.4000	7
43.5000	5
43.6000	6
43.7000	11
43.8000	9
43.9000	4
44.0000	11
44.1000	9
44.2000	12
44.3000	14
44.4000	7
44.5000	14
44.6000	6
44.7000	15
44.8000	10
44.9000	14
45.0000	9
45.1000	7
45.2000	5
45.3000	5
45.4000	4
45.5000	9
45.6000	8
45.7000	7
45.8000	8
45.9000	5
46.0000	5
46.1000	10
46.2000	7
46.3000	9
46.4000	7
46.5000	9
46.6000	9
46.7000	12
46.8000	10
46.9000	11
47.0000	9
47.1000	12
47.2000	17
47.3000	10
47.4000	12
47.5000	7
47.6000	8
47.7000	10
47.8000	9
47.9000	9
48.0000	14
48.1000	7
48.2000	12
48.3000	14
48.4000	10
48.5000	3
48.6000	12
48.7000	11
48.8000	11
48.9000	14
49.0000	9
49.1000	14
49.2000	10
49.3000	8
49.4000	7
49.5000	10
49.6000	11
49.7000	15
49.8000	9
49.9000	10
50.0000	21
50.1000	8
50.2000	16
50.3000	19
50.4000	9
50.5000	8
50.6000	12
50.7000	15
50.8000	14
50.9000	17
51.0000	14
51.1000	25
51.2000	44
51.3000	62
51.4000	101
51.5000	146
51.6000	158
51.7000	135
51.8000	78
51.9000	56
52.0000	22
52.1000	28
52.2000	15
52.3000	13
52.4000	24
52.5000	19
52.6000	12
52.7000	22
52.8000	22
52.9000	21
53.0000	16
53.1000	22
53.2000	9
53.3000	19
53.4000	8
53.5000	22
53.6000	15
53.7000	22
53.8000	17
53.9000	17
54.0000	24
54.1000	19
54.2000	27
54.3000	23
54.4000	46
54.5000	41
54.6000	59
54.7000	37
54.8000	38
54.9000	32
55.0000	22
55.1000	22
55.2000	23
55.3000	22
55.4000	22
55.5000	18
55.6000	19
55.7000	16
55.8000	18
55.9000	19
56.0000	16
56.1000	17
56.2000	17
56.3000	22
56.4000	21
56.5000	13
56.6000	19
56.7000	23
56.8000	27
56.9000	26
57.0000	17
57.1000	16
57.2000	16
57.3000	22
57.4000	18
57.5000	11
57.6000	25
57.7000	13
57.8000	17
57.9000	23
58.0000	14
58.1000	20
58.2000	18
58.3000	29
58.4000	15
58.5000	22
58.6000	13
58.7000	16
58.8000	16
58.9000	12
59.0000	23
59.1000	18
59.2000	16
59.3000	17
59.4000	15
59.5000	23
59.6000	18
59.7000	17
59.8000	27
59.9000	18
60.0000	20
60.1000	16
60.2000	21
60.3000	17
60.4000	22
60.5000	21
60.6000	14
60.7000	19
60.8000	16
60.9000	25
61.0000	22
61.1000	25
61.2000	26
61.3000	43
61.4000	42
61.5000	71
61.6000	70
61.7000	43
61.8000	46
61.9000	30
62.0000	32
62.1000	27
62.2000	23
62.3000	22
62.4000	25
62.5000	23
62.6000	32
62.7000	18
62.8000	25
62.9000	21
63.0000	23
63.1000	20
63.2000	17
63.3000	25
63.4000	19
63.5000	20
63.6000	19
63.7000	27
63.8000	19
63.9000	14
64.0000	26
64.1000	19
64.2000	27
64.3000	21
64.4000	21
64.5000	25
64.6000	23
64.7000	18
64.8000	20
64.9000	19
65.0000	30
65.1000	31
65.2000	26
65.3000	34
65.4000	58
65.5000	53
65.6000	58
65.7000	49
65.8000	29
65.9000	31
66.0000	25
66.1000	32
66.2000	14
66.3000	23
66.4000	27
66.5000	23
66.6000	18
66.7000	21
66.8000	15
66.9000	15
67.0000	22
67.1000	16
67.2000	12
67.3000	16
67.4000	17
67.5000	11
67.6000	13
67.7000	16
67.8000	13
67.9000	15
68.0000	15
68.1000	11
68.2000	14
68.3000	14
68.4000	12
68.5000	21
68.6000	7
68.7000	15
68.8000	22
68.9000	12
69.0000	23
69.1000	13
69.2000	19
69.3000	20
69.4000	14
69.5000	16
69.6000	12
69.7000	14
69.8000	12
69.9000	9
70.0000	8
70.1000	11
70.2000	15
70.3000	7
70.4000	12
70.5000	13
70.6000	8
70.7000	19
70.8000	13
70.9000	13
71.0000	12
71.1000	8
71.2000	17
71.3000	11
71.4000	11
71.5000	10
71.6000	8
71.7000	13
71.8000	10
71.9000	13
72.0000	12
72.1000	11
72.2000	10
72.3000	11
72.4000	7
72.5000	9
72.6000	18
72.7000	11
72.8000	14
72.9000	8
73.0000	12
73.1000	11
73.2000	9
73.3000	4
73.4000	10
73.5000	12
73.6000	13
73.7000	9
73.8000	13
73.9000	14
74.0000	7
74.1000	12
74.2000	3
74.3000	14
74.4000	12
74.5000	15
74.6000	15
74.7000	12
74.8000	9
74.9000	13
75.0000	8
75.1000	16
75.2000	12
75.3000	11
75.4000	9
75.5000	7
75.6000	6
75.7000	7
75.8000	9
75.9000	14
76.0000	6
76.1000	5
76.2000	15
76.3000	10
76.4000	8
76.5000	11
76.6000	7
76.7000	8
76.8000	8
76.9000	14
77.0000	3
77.1000	5
77.2000	7
77.3000	6
77.4000	11
77.5000	7
77.6000	10
77.7000	10
77.8000	8
77.9000	14
78.0000	19
78.1000	4
78.2000	14
78.3000	13
78.4000	5
78.5000	7
78.6000	10
78.7000	10
78.8000	6
78.9000	9
79.0000	7
79.1000	9
79.2000	5
79.3000	3
79.4000	9
79.5000	6
79.6000	10
79.7000	7
79.8000	12
79.9000	8
80.0000	6
80.1000	6
80.2000	6
80.3000	8
80.4000	11
80.5000	4
80.6000	10
80.7000	11
80.8000	17
80.9000	8
81.0000	13
81.1000	12
81.2000	8
81.3000	8
81.4000	5
81.5000	5
81.6000	5
81.7000	7
81.8000	5
81.9000	7
82.0000	6
82.1000	8
82.2000	6
82.3000	5
82.4000	9
82.5000	7
82.6000	8
82.7000	4
82.8000	5
82.9000	5
83.0000	10
83.1000	7
83.2000	4
83.3000	10
83.4000	5
83.5000	10
83.6000	6
83.7000	5
83.8000	5
83.9000	4
84.0000	5
84.1000	8
84.2000	5
84.3000	4
84.4000	4
84.5000	12
84.6000	4
84.7000	8
84.8000	5
84.9000	1
85.0000	4
85.1000	5
85.2000	4
85.3000	11
85.4000	10
85.5000	3
85.6000	8
85.7000	5
85.8000	3
85.9000	8
86.0000	7
86.1000	6
86.2000	6
86.3000	9
86.4000	5
86.5000	7
86.6000	18
86.7000	6
86.8000	5
86.9000	7
87.0000	5
87.1000	5
87.2000	6
87.3000	6
87.4000	4
87.5000	5
87.6000	6
87.7000	5
87.8000	3
87.9000	10
88.0000	6
88.1000	4
88.2000	3
88.3000	3
88.4000	7
88.5000	9
88.6000	7
88.7000	5
88.8000	5
88.9000	4
89.0000	8
89.1000	8
89.2000	6
89.3000	5
89.4000	9
89.5000	11
89.6000	6
89.7000	5
89.8000	10
89.9000	9
90.0000	5
90.1000	10
90.2000	14
90.3000	9
90.4000	6
90.5000	11
90.6000	4
90.7000	6
90.8000	9
90.9000	5
91.0000	2
91.1000	8
91.2000	5
91.3000	2
91.4000	6
91.5000	5
91.6000	3
91.7000	3
91.8000	3
91.9000	6
92.0000	3
92.1000	5
92.2000	6
92.3000	5
92.4000	8
92.5000	5
92.6000	6
92.7000	9
92.8000	9
92.9000	9
93.0000	12
93.1000	7
93.2000	2
93.3000	3
93.4000	4
93.5000	4
93.6000	3
93.7000	5
93.8000	3
93.9000	3
94.0000	7
94.1000	4
94.2000	4
94.3000	7
94.4000	7
94.5000	10
94.6000	5
94.7000	6
94.8000	6
94.9000	2
95.0000	6
95.1000	4
95.2000	5
95.3000	7
95.4000	7
95.5000	9
95.6000	11
95.7000	8
95.8000	5
95.9000	7
96.0000	5
96.1000	7
96.2000	3
96.3000	6
96.4000	6
96.5000	6
96.6000	7
96.7000	6
96.8000	9
96.9000	7
97.0000	7
97.1000	4
97.2000	6
97.3000	10
97.4000	10
97.5000	4
97.6000	4
97.7000	7
97.8000	4
97.9000	5
98.0000	7
98.1000	1
98.2000	5
98.3000	4
98.4000	5
98.5000	2
98.6000	8
98.7000	4
98.8000	6
98.9000	7
99.0000	5
99.1000	5
99.2000	4
99.3000	4
99.4000	9
99.5000	3
99.6000	6
99.7000	9
99.8000	5
99.9000	6
100.0000	7
100.1000	6
100.2000	9
100.3000	7
100.4000	13
100.5000	4
100.6000	3
100.7000	1
100.8000	10
100.9000	9
101.0000	6
101.1000	7
101.2000	6
101.3000	8
101.4000	8
101.5000	14
101.6000	5
101.7000	7
101.8000	8
101.9000	6
102.0000	3
102.1000	8
102.2000	6
102.3000	4
102.4000	6
102.5000	7
102.6000	11
102.7000	10
102.8000	11
102.9000	5
103.0000	8
103.1000	7
103.2000	12
103.3000	8
103.4000	13
103.5000	7
103.6000	6
103.7000	5
103.8000	7
103.9000	8
104.0000	7
104.1000	9
104.2000	9
104.3000	6
104.4000	7
104.5000	4
104.6000	6
104.7000	5
104.8000	6
104.9000	8
105.0000	9
105.1000	6
105.2000	7
105.3000	4
105.4000	4
105.5000	9
105.6000	10
105.7000	6
105.8000	12
105.9000	9
106.0000	8
106.1000	6
106.2000	13
106.3000	12
106.4000	6
106.5000	8
106.6000	12
106.7000	8
106.8000	9
106.9000	13
107.0000	9
107.1000	11
107.2000	17
107.3000	11
107.4000	13
107.5000	13
107.6000	9
107.7000	11
107.8000	11
107.9000	13
108.0000	4
108.1000	6
108.2000	13
108.3000	10
108.4000	13
108.5000	9
108.6000	5
108.7000	5
108.8000	6
108.9000	11
109.0000	11
109.1000	5
109.2000	12
109.3000	12
109.4000	14
109.5000	9
109.6000	8
109.7000	15
109.8000	10
109.9000	9
110.0000	11
110.1000	8
110.2000	8
110.3000	12
110.4000	12
110.5000	12
110.6000	10
110.7000	16
110.8000	15
110.9000	13
111.0000	24
111.1000	10
111.2000	14
111.3000	16
111.4000	19
111.5000	9
111.6000	14
111.7000	21
111.8000	7
111.9000	16
112.0000	18
112.1000	16
112.2000	9
112.3000	13
112.4000	7
112.5000	9
112.6000	10
112.7000	18
112.8000	14
112.9000	19
113.0000	16
113.1000	14
113.2000	13
113.3000	9
113.4000	18
113.5000	11
113.6000	16
113.7000	19
113.8000	15
113.9000	14
114.0000	15
114.1000	16
114.2000	15
114.3000	26
114.4000	21
114.5000	19
114.6000	18
114.7000	19
114.8000	19
114.9000	20
115.0000	19
115.1000	23
115.2000	32
115.3000	16
115.4000	30
115.5000	30
115.6000	24
115.7000	24
115.8000	27
115.9000	16
116.0000	16
116.1000	20
116.2000	25
116.3000	19
116.4000	19
116.5000	17
116.6000	22
116.7000	21
116.8000	18
116.9000	18
117.0000	12
117.1000	12
117.2000	20
117.3000	20
117.4000	15
117.5000	27
117.6000	16
117.7000	14
117.8000	19
117.9000	21
118.0000	29
118.1000	14
118.2000	34
118.3000	21
118.4000	20
118.5000	22
118.6000	27
118.7000	17
118.8000	14
118.9000	18
119.0000	15
119.1000	25
119.2000	14
119.3000	22
119.4000	20
119.5000	30
119.6000	20
119.7000	18
119.8000	22
119.9000	23
120.0000	15
; (Data for Range number 30)
_DRIVE='2THETA'
_STEPTIME=0.250000
_STEPSIZE=0.050000
_STEPMODE='C'
_START=25
_THETA=15
_2THETA=25
_KHI=0.000000
_PHI=0.000000
_X=0.000000
_Y=0.000000
_Z=0.000000
_DIVERGENCE=1.000000
_ANTISCATTER=1.000000
_DETECTOR=1
; S.C.
_HV=800
_GAIN=2.000000
_LLD=0.700000
_ULD=3.000000
_DETECTORSLIT='unkn'
_AUX1=0.000000
_AUX2=0.000000
_AUX3=0.000000
_TIMESTARTED=11807
_TEMPERATURE=26.84
_TEMP_RATE=0.000000
_TEMP_DELAY=0.000000
_KV=45
_MA=40
_RANGE_WL=1.540600
_3DPLANE=0
_2THETACOUNTS
25.0000	29
25.1000	32
25.2000	31
25.3000	35
25.4000	35
25.5000	46
25.6000	36
25.7000	31
25.8000	30
25.9000	38
26.0000	26
26.1000	29
26.2000	29
26.3000	35
26.4000	24
26.5000	35
26.6000	20
26.7000	21
26.8000	32
26.9000	25
27.0000	30
27.1000	26
27.2000	28
27.3000	27
27.4000	26
27.5000	24
27.6000	31
27.7000	33
27.8000	24
27.9000	24
28.0000	23
28.1000	27
28.2000	33
28.3000	27
28.4000	23
28.5000	34
28.6000	28
28.7000	22
28.8000	17
28.9000	20
29.0000	24
29.1000	20
29.2000	21
29.3000	24
29.4000	26
29.5000	19
29.6000	24
29.7000	16
29.8000	21
29.9000	24
30.0000	26
30.1000	23
30.2000	20
30.3000	38
30.4000	31
30.5000	23
30.6000	23
30.7000	25
30.8000	16
30.9000	21
31.0000	24
31.1000	19
31.2000	24
31.3000	15
31.4000	24
31.5000	20
31.6000	20
31.7000	16
31.8000	26
31.9000	20
32.0000	22
32.1000	17
32.2000	21
32.3000	16
32.4000	24
32.5000	24
32.6000	19
32.7000	14
32.8000	15
32.9000	20
33.0000	15
33.1000	23
33.2000	14
33.3000	23
33.4000	25
33.5000	19
33.6000	13
33.7000	9
33.8000	10
33.9000	20
34.0000	18
34.1000	22
34.2000	27
34.3000	14
34.4000	24
34.5000	20
34.6000	14
34.7000	20
34.8000	24
34.9000	18
35.0000	10
35.1000	18
35.2000	12
35.3000	17
35.4000	17
35.5000	8
35.6000	19
35.7000	15
35.8000	13
35.9000	23
36.0000	21
36.1000	13
36.2000	10
36.3000	14
36.4000	14
36.5000	14
36.6000	12
36.7000	11
36.8000	12
36.9000	14
37.0000	20
37.1000	14
37.2000	11
37.3000	18
37.4000	18
37.5000	15
37.6000	12
37.7000	14
37.8000	10
37.9000	11
38.0000	5
38.1000	6
38.2000	11
38.3000	16
38.4000	9
38.5000	13
38.6000	16
38.7000	11
38.8000	14
38.9000	10
39.0000	21
39.1000	12
39.2000	12
39.3000	11
39.4000	17
39.5000	17
39.6000	9
39.7000	18
39.8000	16
39.9000	15
40.0000	12
40.1000	7
40.2000	14
40.3000	7
40.4000	13
40.5000	12
40.6000	9
40.7000	10
40.8000	13
40.9000	14
41.0000	15
41.1000	18
41.2000	12
41.3000	12
41.4000	12
41.5000	8
41.6000	17
41.7000	21
41.8000	15
41.9000	7
42.0000	11
42.1000	10
42.2000	7
42.3000	7
42.4000	14
42.5000	14
42.6000	10
42.7000	7
42.8000	10
42.9000	8
43.0000	9
43.1000	14
43.2000	12
43.3000	8
43.4000	7
43.5000	3
43.6000	13
43.7000	7
43.8000	8
43.9000	12
44.0000	10
44.1000	7
44.2000	10
44.3000	10
44.4000	5
44.5000	7
44.6000	6
44.7000	9
44.8000	11
44.9000	12
45.0000	18
45.1000	3
45.2000	8
45.3000	9
45.4000	3
45.5000	3
45.6000	9
45.7000	7
45.8000	11
45.9000	11
46.0000	8
46.1000	11
46.2000	7
46.3000	4
46.4000	5
46.5000	7
46.6000	3
46.7000	9
46.8000	10
46.9000	4
47.0000	6
47.1000	5
47.2000	7
47.3000	6
47.4000	8
47.5000	9
47.6000	12
47.7000	12
47.8000	4
47.9000	7
48.0000	11
48.1000	13
48.2000	7
48.3000	14
48.4000	7
48.5000	17
48.6000	16
48.7000	5
48.8000	10
48.9000	5
49.0000	10
49.1000	9
49.2000	7
49.3000	10
49.4000	13
49.5000	7
49.6000	8
49.7000	11
49.8000	7
49.9000	10
50.0000	13
50.1000	12
50.2000	15
50.3000	7
50.4000	13
50.5000	8
50.6000	9
50.7000	12
50.8000	13
50.9000	13
51.0000	18
51.1000	23
51.2000	32
51.3000	68
51.4000	110
51.5000	131
51.6000	146
51.7000	119
51.8000	76
51.9000	44
52.0000	37
52.1000	25
52.2000	19
52.3000	18
52.4000	22
52.5000	19
52.6000	16
52.7000	17
52.8000	17
52.9000	16
53.0000	14
53.1000	24
53.2000	19
53.3000	26
53.4000	13
53.5000	20
53.6000	19
53.7000	21
53.8000	20
53.9000	18
54.0000	18
54.1000	23
54.2000	27
54.3000	42
54.4000	33
54.5000	60
54.6000	47
54.7000	42
54.8000	27
54.9000	21
55.0000	17
55.1000	16
55.2000	19
55.3000	14
55.4000	8
55.5000	23
55.6000	23
55.7000	18
55.8000	14
55.9000	18
56.0000	17
56.1000	14
56.2000	20
56.3000	25
56.4000	21
56.5000	25
56.6000	21
56.7000	15
56.8000	22
56.9000	21
57.0000	13
57.1000	25
57.2000	25
57.3000	30
57.4000	28
57.5000	19
57.6000	28
57.7000	23
57.8000	22
57.9000	30
58.0000	19
58.1000	22
58.2000	29
58.3000	31
58.4000	18
58.5000	14
58.6000	23
58.7000	17
58.8000	26
58.9000	15
59.0000	20
59.1000	21
59.2000	18
59.3000	17
59.4000	23
59.5000	21
59.6000	18
59.7000	24
59.8000	19
59.9000	27
60.0000	18
60.1000	21
60.2000	12
60.3000	26
60.4000	22
60.5000	24
60.6000	28
60.7000	21
60.8000	19
60.9000	19
61.0000	27
61.1000	18
61.2000	27
61.3000	51
61.4000	52
61.5000	62
61.6000	70
61.7000	56
61.8000	51
61.9000	45
62.0000	40
62.1000	30
62.2000	13
62.3000	22
62.4000	22
62.5000	19
62.6000	20
62.7000	26
62.8000	14
62.9000	22
63.0000	26
63.1000	17
63.2000	13
63.3000	21
63.4000	26
63.5000	18
63.6000	16
63.7000	24
63.8000	20
63.9000	25
64.0000	19
64.1000	24
64.2000	28
64.3000	20
64.4000	18
64.5000	31
64.6000	20
64.7000	29
64.8000	29
64.9000	22
65.0000	31
65.1000	24
65.2000	34
65.3000	45
65.4000	56
65.5000	70
65.6000	65
65.7000	60
65.8000	39
65.9000	32
66.0000	26
66.1000	31
66.2000	29
66.3000	20
66.4000	17
66.5000	17
66.6000	20
66.7000	19
66.8000	16
66.9000	22
67.0000	24
67.1000	16
67.2000	16
67.3000	21
67.4000	16
67.5000	21
67.6000	15
67.7000	14
67.8000	9
67.9000	21
68.0000	18
68.1000	10
68.2000	15
68.3000	17
68.4000	13
68.5000	15
68.6000	19
68.7000	18
68.8000	18
68.9000	13
69.0000	15
69.1000	10
69.2000	14
69.3000	18
69.4000	14
69.5000	15
69.6000	17
69.7000	17
69.8000	13
69.9000	17
70.0000	17
70.1000	21
70.2000	16
70.3000	17
70.4000	17
70.5000	17
70.6000	15
70.7000	16
70.8000	14
70.9000	15
71.0000	13
71.1000	17
71.2000	20
71.3000	9
71.4000	10
71.5000	11
71.6000	11
71.7000	11
71.8000	13
71.9000	15
72.0000	12
72.1000	15
72.2000	13
72.3000	18
72.4000	17
72.5000	13
72.6000	17
72.7000	13
72.8000	10
72.9000	6
73.0000	6
73.1000	17
73.2000	9
73.3000	16
73.4000	12
73.5000	22
73.6000	15
73.7000	13
73.8000	10
73.9000	12
74.0000	4
74.1000	8
74.2000	11
74.3000	11
74.4000	13
74.5000	8
74.6000	18
74.7000	10
74.8000	15
74.9000	15
75.0000	8
75.1000	10
75.2000	15
75.3000	14
75.4000	11
75.5000	5
75.6000	9
75.7000	12
75.8000	10
75.9000	11
76.0000	10
76.1000	7
76.2000	10
76.3000	17
76.4000	14
76.5000	12
76.6000	11
76.7000	12
76.8000	8
76.9000	14
77.0000	10
77.1000	9
77.2000	9
77.3000	7
77.4000	9
77.5000	11
77.6000	8
77.7000	8
77.8000	10
77.9000	14
78.0000	8
78.1000	13
78.2000	16
78.3000	25
78.4000	20
78.5000	16
78.6000	19
78.7000	9
78.8000	9
78.9000	13
79.0000	9
79.1000	10
79.2000	5
79.3000	10
79.4000	10
79.5000	7
79.6000	4
79.7000	8
79.8000	7
79.9000	17
80.0000	4
80.1000	9
80.2000	15
80.3000	17
80.4000	12
80.5000	5
80.6000	11
80.7000	16
80.8000	8
80.9000	14
81.0000	5
81.1000	13
81.2000	12
81.3000	7
81.4000	12
81.5000	7
81.6000	11
81.7000	5
81.8000	5
81.9000	8
82.0000	7
82.1000	10
82.2000	7
82.3000	5
82.4000	11
82.5000	7
82.6000	11
82.7000	5
82.8000	7
82.9000	4
83.0000	5
83.1000	8
83.2000	7
83.3000	8
83.4000	8
83.5000	6
83.6000	6
83.7000	6
83.8000	6
83.9000	7
84.0000	6
84.1000	7
84.2000	8
84.3000	6
84.4000	7
84.5000	7
84.6000	5
84.7000	3
84.8000	10
84.9000	7
85.0000	9
85.1000	4
85.2000	6
85.3000	6
85.4000	5
85.5000	5
85.6000	11
85.7000	6
85.8000	5
85.9000	6
86.0000	9
86.1000	6
86.2000	10
86.3000	7
86.4000	6
86.5000	9
86.6000	10
86.7000	12
86.8000	5
86.9000	8
87.0000	4
87.1000	5
87.2000	8
87.3000	5
87.4000	8
87.5000	7
87.6000	4
87.7000	8
87.8000	5
87.9000	10
88.0000	8
88.1000	9
88.2000	9
88.3000	2
88.4000	4
88.5000	4
88.6000	8
88.7000	6
88.8000	10
88.9000	8
89.0000	7
89.1000	12
89.2000	10
89.3000	7
89.4000	6
89.5000	7
89.6000	8
89.7000	16
89.8000	10
89.9000	8
90.0000	17
90.1000	14
90.2000	17
90.3000	11
90.4000	14
90.5000	6
90.6000	8
90.7000	9
90.8000	8
90.9000	6
91.0000	7
91.1000	6
91.2000	9
91.3000	4
91.4000	3
91.5000	8
91.6000	5
91.7000	9
91.8000	6
91.9000	1
92.0000	6
92.1000	4
92.2000	4
92.3000	4
92.4000	5
92.5000	18
92.6000	11
92.7000	5
92.8000	2
92.9000	6
93.0000	4
93.1000	4
93.2000	6
93.3000	3
93.4000	7
93.5000	7
93.6000	6
93.7000	4
93.8000	6
93.9000	4
94.0000	7
94.1000	6
94.2000	4
94.3000	10
94.4000	5
94.5000	4
94.6000	4
94.7000	10
94.8000	5
94.9000	6
95.0000	5
95.1000	7
95.2000	10
95.3000	3
95.4000	6
95.5000	6
95.6000	6
95.7000	4
95.8000	14
95.9000	7
96.0000	5
96.1000	9
96.2000	9
96.3000	9
96.4000	7
96.5000	3
96.6000	7
96.7000	6
96.8000	4
96.9000	10
97.0000	7
97.1000	4
97.2000	12
97.3000	6
97.4000	6
97.5000	4
97.6000	5
97.7000	6
97.8000	3
97.9000	11
98.0000	3
98.1000	9
98.2000	7
98.3000	7
98.4000	5
98.5000	6
98.6000	11
98.7000	5
98.8000	11
98.9000	5
99.0000	4
99.1000	6
99.2000	5
99.3000	5
99.4000	14
99.5000	3
99.6000	13
99.7000	6
99.8000	5
99.9000	10
100.0000	4
100.1000	9
100.2000	12
100.3000	5
100.4000	6
100.5000	8
100.6000	7
100.7000	4
100.8000	3
100.9000	9
101.0000	5
101.1000	4
101.2000	5
101.3000	11
101.4000	6
101.5000	4
101.6000	13
101.7000	8
101.8000	11
101.9000	6
102.0000	6
102.1000	8
102.2000	8
102.3000	8
102.4000	8
102.5000	6
102.6000	7
102.7000	8
102.8000	11
102.9000	15
103.0000	7
103.1000	10
103.2000	6
103.3000	9
103.4000	6
103.5000	11
103.6000	5
103.7000	15
103.8000	12
103.9000	8
104.0000	4
104.1000	12
104.2000	10
104.3000	13
104.4000	14
104.5000	10
104.6000	8
104.7000	15
104.8000	15
104.9000	12
105.0000	8
105.1000	12
105.2000	4
105.3000	12
105.4000	7
105.5000	5
105.6000	9
105.7000	12
105.8000	7
105.9000	9
106.0000	8
106.1000	12
106.2000	8
106.3000	5
106.4000	12
106.5000	5
106.6000	5
106.7000	7
106.8000	8
106.9000	10
107.0000	8
107.1000	13
107.2000	12
107.3000	16
107.4000	12
107.5000	11
107.6000	13
107.7000	15
107.8000	10
107.9000	13
108.0000	14
108.1000	14
108.2000	17
108.3000	8
108.4000	12
108.5000	11
108.6000	9
108.7000	15
108.8000	16
108.9000	10
109.0000	12
109.1000	24
109.2000	11
109.3000	8
109.4000	12
109.5000	14
109.6000	13
109.7000	9
109.8000	15
109.9000	15
110.0000	8
110.1000	9
110.2000	17
110.3000	18
110.4000	13
110.5000	19
110.6000	15
110.7000	14
110.8000	11
110.9000	21
111.0000	29
111.1000	17
111.2000	21
111.3000	13
111.4000	26
111.5000	14
111.6000	24
111.7000	23
111.8000	13
111.9000	11
112.0000	17
112.1000	18
112.2000	16
112.3000	13
112.4000	18
112.5000	14
112.6000	21
112.7000	10
112.8000	11
112.9000	15
113.0000	11
113.1000	19
113.2000	16
113.3000	10
113.4000	17
113.5000	13
113.6000	13
113.7000	15
113.8000	19
113.9000	28
114.0000	24
114.1000	20
114.2000	22
114.3000	14
114.4000	22
114.5000	18
114.6000	25
114.7000	24
114.8000	28
114.9000	26
115.0000	30
115.1000	36
115.2000	22
115.3000	27
115.4000	20
115.5000	26
115.6000	23
115.7000	27
115.8000	19
115.9000	23
116.0000	25
116.1000	18
116.2000	23
116.3000	19
116.4000	18
116.5000	20
116.6000	20
116.7000	25
116.8000	22
116.9000	18
117.0000	26
117.1000	22
117.2000	17
117.3000	20
117.4000	21
117.5000	22
117.6000	21
117.7000	19
117.8000	19
117.9000	18
118.0000	24
118.1000	16
118.2000	25
118.3000	26
118.4000	20
118.5000	20
118.6000	24
118.7000	19
118.8000	21
118.9000	22
119.0000	25
119.1000	20
119.2000	17
119.3000	14
119.4000	19
119.5000	27
119.6000	30
119.7000	30
119.8000	17
119.9000	25
120.0000	29