File: assets/data/P25/pxrd_diffractograms.csv
"thth","T200","T300","T400","T500","T600","T700","T800","T900"
10.0001,-70.5689,-10.51378,46.8837,107.483,166.7275,232.01,309.241,395.687
10.14323,-71.1027,-9.83913,49.05396,109.2563,166.9438,231.968,309.528,395.719
10.28635,-69.18003,-9.64966,47.56688,108.0112,167.184,231.98,309.533,395.713
10.42947,-69.15611,-10.10826,48.96354,109.591,167.102,232.095,309.355,395.687
10.5726,-69.73257,-10.47273,48.73708,106.539,166.761,232.299,309.092,395.856
10.71572,-69.3524,-10.21923,47.43833,107.675,166.756,231.827,308.828,395.687
10.85885,-69.44132,-10.76865,47.6326,108.355,166.295,232.2776,309.361,395.689
11.00197,-68.48983,-9.58199,45.64573,109.314,166.9187,232.211,309.203,395.687
11.1451,-69.18863,-10.44543,47.09786,107.873,166.802,231.869,308.917,396.079
11.28822,-68.98784,-8.29607,47.74891,109.043,166.7,232.164,308.89,396.109
11.43135,-68.33804,-10.26108,46.9349,108.118,166.956,231.712,309.101,395.823
11.57447,-69.33873,-10.34478,47.80016,108.814,166.696,231.853,309.09,395.932
11.7176,-68.19729,-8.19824,45.63599,108.719,166.8124,231.769,308.644,395.918
11.86072,-70.44817,-9.51798,47.7876,108.767,166.874,232.021,308.837,395.696
12.00385,-68.21842,-11.1811,47.24,107.738,166.938,232.017,308.905,395.87
12.14697,-70.5689,-11.29631,48.09312,107.868,166.732,232.01,309.063,395.903
12.2901,-69.18078,-9.28516,46.8837,106.537,166.889,231.831,308.639,395.687
12.43322,-68.83355,-10.15229,48.3587,108.601,167.093,232.265,308.518,395.792
12.57635,-70.5689,-9.67457,45.90583,110.019,166.675,231.967,308.726,395.687
12.71947,-70.62521,-8.22346,48.4376,107.847,166.925,231.853,308.847,395.744
12.8626,-70.08194,-11.16914,47.21984,107.986,167.028,231.972,308.516,396.026
13.00572,-68.92402,-10.18046,47.96859,107.5426,166.937,232.106,308.4282,395.687
13.14885,-69.42943,-11.21592,46.76031,107.797,166.7275,232.095,308.499,395.687
13.29197,-71.60121,-10.56684,45.93094,107.74,166.976,232.063,308.5266,395.687
13.4351,-70.83945,-9.55577,47.37406,106.907,166.844,232.01,308.74,395.997
13.57822,-70.16878,-10.46204,47.51641,107.68,166.9,231.905,308.63,395.744
13.72135,-70.12588,-9.70884,46.61328,107.273,166.5888,232.097,308.751,395.966
13.86447,-70.22643,-10.18152,47.38672,106.475,166.578,232.052,308.503,396.041
14.0076,-70.37974,-10.38815,47.48464,107.577,166.891,232.164,308.422,395.7951
14.15072,-68.49411,-8.65514,46.72734,108.2687,166.738,232.063,308.632,395.852
14.29385,-70.50408,-10.0594,46.76865,108.27,166.815,232.224,308.347,395.731
14.43697,-70.85039,-10.21168,47.78922,107.941,166.7275,232.044,308.305,395.755
14.5801,-70.47129,-9.88036,47.37297,108.804,166.772,232.005,308.692,395.865
14.72322,-70.38012,-11.01552,48.32068,106.826,166.713,231.838,308.3415,395.687
14.86635,-71.29279,-9.72558,45.92958,107.238,166.783,231.966,308.347,395.687
15.00947,-69.52876,-10.10317,46.07484,108.0824,166.874,232.106,308.316,395.9076
15.1526,-69.23821,-9.58747,48.44635,108.985,166.591,232.109,308.574,395.739
15.29572,-70.76819,-10.87293,46.16167,106.304,166.782,232.106,308.443,395.687
15.43885,-69.40578,-9.83434,45.75885,108.363,166.7275,232.01,308.531,395.902
15.58197,-70.90146,-9.65768,47.26891,108.315,166.816,232.545,308.208,395.687
15.7251,-72.05324,-10.20818,46.24495,108.937,166.943,232.01,308.2132,396.0699
15.86822,-70.20853,-10.12352,47.56229,107.1201,166.667,231.934,308.229,395.8551
16.01134,-70.88902,-11.4004,48.00932,109.6413,166.642,231.7526,308.316,395.721
16.15447,-70.1641,-9.50462,47.34599,106.243,166.79,231.803,308.15,395.808
16.29759,-70.85075,-9.6323,47.69615,107.36,166.775,232.057,308.145,395.687
16.44072,-70.41114,-11.28396,46.86365,109.504,166.744,232.01,308.348,395.687
16.58384,-70.1818,-10.98328,47.02917,106.4937,166.788,232.031,308.223,395.822
16.72697,-70.08542,-9.1608,47.62391,108.398,166.771,231.73,308.073,395.769
16.87009,-70.83323,-10.19282,47.4013,107.728,166.8899,231.822,308.277,395.991
17.01322,-69.1724,-10.04881,47.30151,109.4,166.5425,232.14,308.221,395.743
17.15634,-70.34342,-11.11902,46.04349,107.875,166.602,232.01,307.931,395.876
17.29947,-70.10137,-9.71625,45.5001,107.286,166.7725,232.162,308.0007,395.864
17.44259,-68.17713,-9.76754,47.09026,107.2151,166.573,232.098,307.992,395.715
17.58572,-70.60504,-9.89785,47.07979,106.458,166.898,232.21,307.998,395.687
17.72884,-70.60401,-9.70977,46.92771,107.222,166.681,232.28,308.041,395.745
17.87197,-68.58113,-10.08815,46.33844,108.073,166.551,231.888,307.924,395.802
18.01509,-69.76374,-10.86671,47.25542,107.702,166.83,231.821,307.95,395.887
18.15822,-70.56107,-10.07631,46.92839,107.111,166.782,231.958,307.8706,395.735
18.30134,-70.2011,-11.00293,46.65151,107.441,166.647,231.927,308.226,395.687
18.44447,-70.08308,-10.16984,47.90688,106.762,167.017,231.989,307.775,395.712
18.58759,-70.87854,-9.90078,46.36458,108.197,166.72,231.918,308.014,395.79
18.73072,-69.647,-10.0413,48.01464,107.328,166.665,232.02,307.962,395.918
18.87384,-70.46202,-10.52663,47.24573,108.082,166.6438,231.9826,308.043,395.687
19.01697,-70.16173,-10.27824,46.4175,107.492,166.506,232.267,307.9036,395.765
19.16009,-69.92921,-11.01134,47.76839,106.112,166.642,232.01,307.9055,395.88
19.30322,-69.82589,-10.53408,47.87589,107.907,166.791,231.957,308.068,396.027
19.44634,-69.9793,-10.63272,46.19005,109.2362,166.953,232.277,308.1508,395.745
19.58947,-70.73489,-10.40681,46.5662,107.763,167.009,232.024,307.875,395.687
19.73259,-71.25074,-10.08819,46.78135,106.644,166.714,232.118,308.184,395.815
19.87572,-68.74217,-10.19909,47.19255,107.244,166.766,232.021,307.936,395.687
20.01884,-69.97395,-9.93905,47.74,107.073,166.832,232.075,307.993,395.785
20.16197,-70.31959,-10.62827,47.71901,108.578,166.886,232.111,308.064,395.7949
20.30509,-69.59393,-9.75803,46.86589,107.869,166.749,232.106,307.926,395.8551
20.44822,-70.08443,-10.17305,47.1225,106.642,166.708,232.006,308.131,395.789
20.59134,-69.75263,-10.9311,47.61172,108.489,166.998,231.9774,307.8917,395.713
20.73447,-70.01249,-10.2968,46.8837,108.546,166.8537,231.99,307.929,395.817
20.87759,-70.5373,-10.97861,47.68026,107.602,166.733,232.27,308.106,395.729
21.02072,-69.66521,-9.66719,48.01927,108.109,166.8637,232.06,308.123,395.687
21.16384,-70.57932,-10.44754,47.47943,108.565,166.8687,232.01,308.017,395.758
21.30697,-69.25908,-10.04724,48.37901,107.963,166.753,232.154,308.109,395.889
21.45009,-70.09189,-9.72217,47.57443,107.8974,166.597,231.927,307.926,395.816
21.59321,-69.7383,-10.25939,46.5163,107.358,166.753,232.022,307.996,395.756
21.73634,-70.3657,-11.23545,47.03911,109.439,166.88,231.888,307.993,395.855
21.87946,-69.90081,-9.83677,47.27432,107.944,167.08,232.01,307.778,395.973
22.02259,-71.23764,-10.05477,46.28682,108.491,166.764,232.0113,307.855,395.852
22.16571,-70.5239,-10.47218,47.28234,108.026,166.6437,232.015,307.723,395.791
22.30884,-70.26983,-10.02047,48.06651,107.709,167.15,232.075,307.637,395.808
22.45196,-70.63084,-10.77857,47.82443,107.615,166.979,232.01,307.904,395.806
22.59509,-70.92388,-10.2864,46.93646,107.262,166.74,232.185,307.815,395.821
22.73821,-68.4363,-10.57319,46.95953,108.092,166.7275,232.2437,307.794,395.79
22.88134,-68.83661,-11.06452,46.39714,108.173,166.621,232.229,307.854,395.7276
23.02446,-70.83305,-9.0416,46.8837,108.476,166.672,232.112,307.864,395.8913
23.16759,-70.28017,-11.18431,47.55135,108.586,166.642,232.0376,307.901,395.687
23.31071,-70.78285,-10.12886,46.72005,107.109,166.816,231.9888,307.986,395.903
23.45384,-69.89322,-10.11551,47.59453,107.777,166.762,232.218,308.066,395.713
23.59696,-69.18652,-9.15256,47.84656,108.226,166.937,232.0251,307.918,395.892
23.74009,-69.12528,-9.54952,47.32422,107.128,166.733,232.01,307.871,395.744
23.88321,-70.50938,-10.51378,47.30432,107.299,166.772,232.002,307.925,395.9
24.02634,-70.0262,-9.45124,46.24594,107.359,166.931,232.008,307.783,395.687
24.16946,-69.12786,-10.51378,46.58062,106.9526,166.544,232.0788,307.849,395.687
24.31259,-69.30952,-10.27839,47.08349,108.38,166.708,232.01,307.752,395.872
24.45571,-70.00881,-11.5062,46.93859,107.392,166.634,232.276,307.989,395.852
24.59884,-71.04778,-10.21288,47.43125,108.56,166.905,231.934,308.023,395.839
24.74196,-69.93386,-10.39804,47.4363,107.819,166.7463,232.089,307.941,395.723
24.88509,-69.3418,-10.05416,47.30109,107.061,166.856,231.8201,308.001,395.865
25.02821,-68.80456,-10.80256,48.30865,107.962,166.988,232.055,307.845,395.749
25.17134,-69.99598,-9.12663,46.21698,107.264,166.7274,232.01,308.08,395.774
25.31446,-69.58416,-9.35202,46.82813,107.4313,166.811,232.196,307.903,395.906
25.45759,-70.33924,-10.07709,46.98828,108.013,166.7275,232.018,307.676,395.861
25.60071,-70.60754,-9.50597,48.03922,108.389,166.721,232.0138,307.927,395.84
25.74384,-69.8679,-10.8423,46.2637,108.119,166.652,232.067,307.871,395.795
25.88696,-69.55087,-9.94718,48.15234,107.527,166.848,231.97,307.978,396.061
26.03009,-69.99407,-10.07669,47.24911,108.652,166.545,232.273,307.951,395.751
26.17321,-70.81471,-10.4994,48.02286,107.942,166.625,231.854,307.831,395.836
26.31634,-69.541,-10.19071,46.96203,108.601,166.703,232.049,308.057,395.836
26.45946,-69.18679,-10.2114,47.12193,106.986,166.7551,231.988,307.982,395.696
26.60259,-69.89753,-11.53365,46.86156,107.282,166.8163,231.8937,307.8709,395.74
26.74571,-70.30096,-10.44529,46.67193,107.326,167.151,232.064,307.708,395.7337
26.88884,-70.21374,-10.58893,47.09385,107.858,166.72,231.993,308.027,395.687
27.03196,-70.05381,-9.46085,47.74354,107.688,166.95,231.948,307.954,395.885
27.17508,-71.08783,-10.31608,47.6212,107.8987,166.826,232.113,308.068,395.687
27.31821,-69.77669,-9.93946,48.25031,107.828,166.846,232.0463,307.891,395.803
27.46133,-69.93653,-10.268,47.87312,109.264,166.83,232.2901,307.876,395.687
27.60446,-69.80726,-10.51378,47.79005,107.145,166.795,232.01,307.657,395.7912
27.74758,-70.3809,-10.28544,47.07432,107.028,166.732,231.866,308.034,395.818
27.89071,-69.34774,-10.51378,46.94667,108.567,166.969,232.116,307.801,395.687
28.03383,-69.93431,-10.7558,47.18349,107.035,166.897,232.037,308.031,395.878
28.17696,-68.7619,-9.65997,47.06141,108.137,166.843,232.078,307.9798,396.1201
28.32008,-69.8188,-10.87255,47.51042,108.431,166.92,232.0325,307.875,395.7113
28.46321,-68.74321,-10.01864,47.73427,108.6,167.015,231.921,307.797,395.721
28.60633,-68.90208,-10.68361,46.60771,108.196,166.653,232.01,308.042,395.727
28.74946,-69.20657,-9.14433,47.08198,108.721,166.595,232.025,307.901,395.687
28.89258,-70.66784,-10.72713,46.64948,107.9837,166.557,232.187,308.189,395.932
29.03571,-70.38942,-10.36867,47.59089,109.139,166.7663,232.12,307.9776,395.9513
29.17883,-68.76264,-10.46386,47.965,107.896,166.763,231.986,307.958,395.877
29.32196,-70.0964,-8.59554,47.0174,108.285,166.65,231.81,307.947,395.809
29.46508,-69.80883,-9.36354,47.74906,108.369,166.774,232.108,308.0895,395.792
29.60821,-69.64324,-9.40811,46.39141,106.479,166.838,231.977,308.053,395.865
29.75133,-70.37752,-9.79324,48.7513,107.871,166.8974,232.09,307.944,395.687
29.89446,-71.165,-9.52001,46.8837,107.483,166.937,232.168,308.121,395.695
30.03758,-69.99804,-11.04552,46.5649,108.698,166.833,232.1688,308.1642,395.753
30.18071,-71.11988,-10.47319,47.30901,107.174,166.6751,232.1374,308.2814,395.872
30.32383,-70.2388,-11.08205,47.71792,107.671,167.006,232.133,308.488,395.972
30.46696,-71.93367,-10.43623,49.02208,108.109,166.7512,232.116,308.034,396.227
30.61008,-69.6894,-8.25906,48.99562,107.709,166.618,231.987,309.165,395.8388
30.75321,-66.7121,-8.29902,50.18036,109.428,166.459,231.607,309.005,395.732
30.89633,-65.53596,-4.15911,53.1275,110.85,166.939,232.01,308.93,395.687
31.03946,-60.94347,-0.4051,59.01359,115.346,167.916,232.219,309.15,395.786
31.18258,-54.67436,8.73313,65.79563,123.61,169.5549,232.707,309.4334,395.978
31.32571,-46.91178,16.07266,77.48224,132.861,173.196,234.899,311.124,395.9
31.46883,-31.82615,35.64531,92.9263,151.461,185.787,242.105,315.359,396.662
31.61196,-11.75849,53.98177,116.625,170.117,225.115,276.869,346.367,406.308
31.75508,14.80625,65.94682,130.758,194.401,275.324,411.174,617.143,608.994
31.89821,-8.0251,60.82484,126.662,184.367,224.157,286.617,330.843,430.668
32.04133,-29.36182,39.4399,106.846,161.39,186.498,242.539,313.771,400.019
32.18446,-44.58977,23.03521,88.30776,142.308,173.809,235.112,311.1277,396.108
32.32758,-54.824,9.45604,69.48995,127.261,169.87,233.136,309.999,395.827
32.47071,-62.61582,0.52859,57.48359,117.075,167.937,232.112,309.723,395.687
32.61383,-69.47273,-3.7726,53.51714,112.608,166.797,232.196,309.972,395.9562
32.75695,-67.94446,-9.51933,49.57151,110.876,167.2513,231.774,309.118,395.8
32.90008,-67.91799,-9.4639,49.31984,107.452,166.707,232.01,309.504,395.75
33.0432,-69.55203,-12.10526,46.67854,108.305,166.88,231.5562,309.013,395.921
33.18633,-70.68668,-9.82493,46.33443,106.764,166.931,231.865,309.541,395.814
33.32945,-68.57844,-10.71035,46.87771,106.285,167.128,232.01,309.411,396.054
33.47258,-67.294,-7.1424,48.69932,109.308,166.916,232.156,309.472,396.181
33.6157,-67.54926,-5.0001,52.45078,109.956,166.541,232.026,309.38,396.112
33.75883,-62.73625,-3.36036,57.15417,115.132,167.335,232.379,309.7953,395.912
33.90195,-57.83176,5.76193,63.14411,118.827,168.68,232.903,309.829,395.748
34.04508,-52.99007,11.70781,73.26719,130.309,174.596,235.348,311.288,395.798
34.1882,-41.38674,25.7113,88.07307,143.629,191.2062,246.645,318.421,397.863
34.33133,-22.9537,37.9924,95.62833,158.283,229.299,304.771,387.772,414.5288
34.47445,-21.46667,37.80214,99.25365,161.277,233.888,332.9787,401.208,639.86
34.61758,-37.82215,31.12042,90.23745,153.877,192.273,249.545,316.083,403.747
34.7607,-41.9962,21.12729,83.75255,136.251,175.394,236.572,311.353,399.045
34.90383,-55.09327,12.39427,69.7575,124.515,168.165,233.307,311.361,397.3863
35.04695,-56.65319,3.55849,66.05875,120.102,167.071,232.622,310.833,396.2025
35.19008,-59.57413,6.87453,63.36698,117.427,166.538,232.083,310.973,395.7288
35.3332,-54.57957,9.09469,68.79693,119.735,167.446,231.787,310.375,395.778
35.47633,-51.19128,14.20385,75.6437,123.44,168.32,232.3451,311.065,395.687
35.61945,-43.70229,24.44604,83.24865,134.422,172.414,233.469,311.634,395.687
35.76258,-32.43756,41.03198,99.1726,149.375,178.753,236.938,313.325,396.1201
35.9057,-12.68656,61.56594,124.16,171.597,195.694,246.869,319.083,397.486
36.04883,16.75813,86.0549,151.309,204.165,241.904,285.478,346.673,407.158
36.19195,48.20865,106.427,171.814,232.047,324.977,453.361,648.929,509.657
36.33508,34.21021,105.992,171.945,236.5899,295.979,402.166,419.121,598.464
36.4782,0.52187,82.57797,149.2526,198.817,217.661,266.49,322.455,399.202
36.62133,-26.4351,48.07333,118.743,168.127,186.428,243.344,313.545,398.969
36.76445,-42.42335,28.67823,94.59135,142.918,175.175,235.909,312.38,398.217
36.90758,-51.14294,13.54125,75.87875,130.386,170.444,234.046,311.124,396.3099
37.0507,-56.02207,6.33802,69.01453,120.588,168.475,232.423,310.919,395.793
37.19383,-61.26305,-0.43208,59.01599,117.04,167.45,231.979,309.944,396.164
37.33695,-65.63078,-4.96281,54.26755,111.245,166.928,232.121,309.808,395.835
37.48008,-67.55406,-8.12891,49.91682,111.333,166.63,232.024,309.813,396.069
37.6232,-68.25976,-8.76783,49.66073,108.532,166.839,231.919,309.59,395.687
37.76633,-69.77848,-9.96733,47.95844,107.764,166.338,232.0762,309.067,395.687
37.90945,-69.88234,-11.80146,49.65552,106.906,166.7,232.153,309.152,395.9312
38.05258,-69.68405,-10.14711,47.43276,110.242,166.784,232.199,309.217,395.995
38.1957,-70.43937,-9.26565,48.73167,108.825,166.501,232.109,308.837,395.687
38.33882,-71.13933,-9.94476,48.69333,106.732,166.781,232.1037,308.8408,395.935
38.48195,-70.75664,-9.26021,46.60682,107.829,167.164,231.844,308.724,395.729
38.62507,-70.09567,-10.48921,45.9888,108.961,166.822,232.181,308.757,395.968
38.7682,-71.12499,-10.01903,47.34255,107.104,166.77,232.1549,308.796,395.7849
38.91132,-70.52747,-9.93545,48.74589,107.975,166.676,231.953,308.62,395.764
39.05445,-69.92067,-11.42317,47.57531,107.167,166.656,231.925,308.3622,395.89
39.19757,-70.06127,-10.39244,47.76229,107.635,166.642,232.04,308.505,395.928
39.3407,-68.16261,-10.4012,46.79391,108.267,166.79,232.093,308.556,395.805
39.48382,-69.47438,-10.94647,47.69625,107.439,166.824,232.405,308.428,395.927
39.62695,-70.71549,-11.18392,48.16115,107.537,166.6176,232.038,308.3267,395.92
39.77007,-71.02187,-10.62966,46.52682,107.104,166.756,232.024,308.182,395.778
39.9132,-70.25097,-10.09363,47.06203,108.4774,166.804,232.1551,308.188,395.892
40.05632,-70.04587,-9.38194,48.57172,108.132,167.019,232.01,308.338,395.935
40.19945,-69.98936,-11.12138,46.68927,108.785,166.737,232.19,307.908,395.8976
40.34257,-69.76559,-9.5703,47.50375,107.34,166.924,231.855,307.872,395.862
40.4857,-69.6118,-10.36577,48.90198,108.119,166.865,232.069,308.093,395.946
40.62882,-70.62518,-9.63524,47.05328,107.449,166.681,232.105,307.893,395.956
40.77195,-70.70194,-10.19514,47.88208,108.906,167.029,232.294,307.825,395.984
40.91507,-70.02503,-11.03035,48.8774,108.307,166.854,232.143,307.723,395.833
41.0582,-69.37094,-10.04352,46.98005,107.566,166.669,231.793,308.109,395.96
41.20132,-70.4222,-9.92029,47.75047,107.808,166.843,232.072,307.697,395.779
41.34445,-69.73631,-10.07143,47.27099,108.663,166.811,232.005,307.977,395.873
41.48757,-69.92277,-9.17137,46.57156,108.804,166.818,231.886,307.884,395.927
41.6307,-70.33323,-9.38048,47.5226,109.402,166.916,231.99,307.975,395.854
41.77382,-70.52906,-9.44502,46.87802,108.2862,166.727,232.099,307.664,395.687
41.91695,-71.46084,-9.86851,46.8463,108.117,166.697,232.051,308.14,395.748
42.06007,-70.42734,-9.89694,46.8326,109.385,166.556,232.076,307.768,395.687
42.2032,-69.95592,-10.17627,46.79875,107.483,166.5038,232.252,308.068,395.687
42.34632,-70.45927,-9.26813,47.42729,107.065,166.832,231.927,307.796,395.802
42.48945,-71.83133,-10.47847,47.2025,108.115,166.75,232.078,307.91,395.8087
42.63257,-69.48007,-10.20964,46.81307,109.072,166.618,232.027,307.964,395.85
42.7757,-69.72999,-10.24231,47.8363,108.423,167.052,232.059,307.666,395.865
42.91882,-68.97665,-9.67588,47.65385,107.356,166.8026,231.967,307.768,395.77
43.06195,-69.42001,-10.51378,46.99458,107.775,166.7549,231.803,308.004,395.687
43.20507,-69.56242,-10.68531,46.63688,108.239,166.672,232.01,307.625,395.687
43.3482,-69.92183,-10.06282,47.70141,107.66,166.889,231.95,307.898,395.777
43.49132,-69.34201,-10.26122,46.75599,107.356,166.563,231.854,307.838,395.687
43.63445,-70.46884,-10.16687,46.88391,108.307,166.565,231.938,307.831,395.979
43.77757,-69.68176,-10.18012,46.64385,108.528,166.811,232.175,307.764,395.808
43.92069,-70.4131,-11.08383,47.27328,107.583,166.619,232.051,307.762,395.827
44.06382,-70.66927,-10.84811,46.68948,109.165,166.7275,232.214,307.6287,395.722
44.20694,-69.12495,-10.45825,46.9988,107.4576,166.907,231.866,307.695,395.725
44.35007,-71.01817,-9.50415,47.25177,108.263,167.058,232.066,307.7302,395.708
44.49319,-71.71008,-9.13849,48.44755,106.942,166.923,232.126,307.909,395.687
44.63632,-71.38734,-10.52393,47.07589,107.604,166.708,232.137,307.805,395.687
44.77944,-69.79921,-10.60045,47.51552,107.823,166.616,232.13,307.863,395.734
44.92257,-70.46744,-10.16735,46.88927,107.0137,167.054,232.028,307.863,395.765
45.06569,-70.36267,-10.08372,46.32313,107.403,166.851,232.156,308.002,395.687
45.20882,-71.19198,-10.27582,47.10583,107.9962,166.704,232.146,307.989,395.694
45.35194,-71.21667,-10.90668,46.85818,107.99,166.726,232.197,308.125,395.687
45.49507,-70.99368,-10.0394,46.3488,106.94,166.9001,231.902,307.811,395.945
45.63819,-71.2127,-10.90639,47.0513,107.009,166.723,232.01,307.977,395.687
45.78132,-69.80968,-10.6741,46.68214,107.505,166.784,232.205,308.208,395.734
45.92444,-70.45737,-10.34665,48.02484,106.85,166.576,232.001,308.14,395.687
46.06757,-71.35343,-9.8086,45.5726,108.424,166.857,232.187,307.939,395.728
46.21069,-68.30911,-9.85209,47.17437,107.4312,166.765,232.051,308.106,395.687
46.35382,-69.80699,-10.13271,46.87724,108.666,166.821,232.1862,307.9487,395.842
46.49694,-69.07002,-11.62866,46.90042,109.294,166.4412,232.01,308.032,395.756
46.64007,-68.32292,-10.59697,49.88443,107.95,166.8874,231.909,308.25,395.781
46.78319,-68.31456,-8.04794,49.88375,109.333,167.197,231.851,308.385,395.755
46.92632,-66.98694,-6.55599,52.18573,111.213,168.62,232.338,308.836,395.801
47.06944,-64.08018,-3.83995,55.89406,113.5876,170.291,233.353,309.595,395.687
47.21257,-61.31069,-0.53339,57.22698,118.837,175.136,237.136,311.773,396.322
47.35569,-59.47789,2.99828,61.52349,120.82,182.962,249.363,320.953,399.448
47.49882,-53.70437,3.80281,62.70198,122.348,192.873,276.501,395.351,437.092
47.64194,-58.69003,1.74292,62.69823,122.349,187.842,261.046,331.228,429.009
47.78507,-59.18007,1.57635,60.92188,120.982,177.994,240.987,311.654,399.748
47.92819,-62.89715,-3.92198,57.88979,115.341,171.921,235.228,309.838,395.687
48.07132,-65.77087,-4.46557,53.67188,113.146,169.2099,233.187,308.843,395.7099
48.21444,-67.02065,-5.83849,51.56542,110.086,167.21,232.355,308.573,395.832
48.35757,-68.74637,-8.3963,49.35938,111.1575,166.653,232.141,308.559,395.728
48.50069,-67.9624,-10.56461,48.93146,110.924,166.827,232.1888,308.448,395.884
48.64382,-68.25106,-10.78462,48.56161,108.322,167.206,232.342,308.496,395.687
48.78694,-69.34784,-8.94697,46.87458,106.952,166.797,232.078,308.119,396.021
48.93007,-69.46234,-10.13289,48.1374,108.974,166.963,231.837,308.221,396.176
49.07319,-69.75122,-9.53926,47.07734,107.483,166.667,232.252,307.999,395.687
49.21632,-69.51032,-10.24737,47.7863,107.3987,166.7275,231.888,308.018,395.894
49.35944,-71.09212,-10.8826,47.12328,107.912,166.9912,231.796,307.972,395.759
49.50257,-70.26119,-9.71379,48.17547,107.964,166.8324,231.99,308.042,395.815
49.64569,-70.14138,-9.05518,48.25865,107.398,166.794,232.098,308.063,395.746
49.78881,-69.65242,-10.09509,46.58219,108.28,166.677,231.862,307.8704,395.812
49.93194,-70.49042,-10.83701,47.97865,108.31,166.762,232.067,307.987,395.934
50.07506,-69.27433,-10.81704,48.0599,108.312,166.865,231.919,308.024,395.886
50.21819,-70.5689,-9.05198,47.0012,107.24,166.796,231.9149,308.066,395.977
50.36131,-69.93046,-10.57975,46.83328,107.81,166.708,232.01,307.961,395.687
50.50444,-70.10327,-9.31793,46.33562,109.006,166.7024,231.9037,307.77,395.716
50.64756,-70.28622,-10.14139,47.6299,108.407,167.069,231.987,308.004,396.0701
50.79069,-69.5707,-9.74729,46.70995,107.472,166.751,231.921,307.941,395.901
50.93381,-69.64644,-10.66852,47.10839,107.071,166.858,232.088,307.938,395.911
51.07694,-70.71601,-10.17768,47.61266,107.693,166.711,232.0887,307.973,395.878
51.22006,-70.26752,-11.26558,46.56109,106.915,166.803,231.876,307.796,395.687
51.36319,-70.02333,-10.17963,46.31464,107.523,166.8499,231.919,307.957,395.687
51.50631,-69.96084,-10.12748,47.25531,108.025,166.7275,232.214,307.745,395.799
51.64944,-70.3434,-10.33242,47.40953,106.8,166.7,232.01,308.039,395.687
51.79256,-70.3371,-10.04418,46.85464,107.726,166.774,232.125,307.816,395.772
51.93569,-69.85474,-10.30267,47.13984,107.423,166.847,232.084,307.99,395.737
52.07881,-70.41044,-9.47713,47.58062,108.066,166.705,232.01,307.789,395.791
52.22194,-70.26419,-10.05638,47.02589,108.5701,166.67,231.973,307.849,396.001
52.36506,-70.29352,-10.91481,46.91161,108.246,166.965,231.911,308.081,395.687
52.50819,-70.5689,-9.65715,47.06948,107.253,166.716,232.04,307.765,395.939
52.65131,-69.35778,-9.40927,46.71646,108.715,166.809,232.022,307.763,395.687
52.79444,-70.0259,-11.33643,46.8837,107.73,166.815,232.01,307.8713,395.852
52.93756,-69.3361,-9.38718,47.63922,107.976,166.87,232.021,307.971,395.687
53.08069,-70.00364,-10.14581,46.49469,107.762,166.739,232.111,308.0903,395.8675
53.22381,-70.72219,-10.04766,47.60125,108.611,166.852,231.897,307.766,395.69
53.36694,-70.05486,-11.15923,47.73833,107.4788,166.763,232.198,307.754,395.92
53.51006,-70.14781,-9.36091,47.22563,108.173,166.495,232.067,308.276,395.7575
53.65319,-70.34191,-11.03727,46.74651,106.79,166.753,232.01,307.614,395.69
53.79631,-70.96723,-9.73165,47.61698,108.198,166.697,232.057,308.195,396.102
53.93944,-68.92973,-11.77693,47.25938,108.544,166.7275,231.956,308.011,395.687
54.08256,-70.43311,-9.5957,47.0787,107.303,166.656,232.063,308.047,396.03
54.22569,-71.17838,-11.15771,48.04161,107.944,166.644,232.22,307.824,395.872
54.36881,-69.25754,-9.6821,47.53854,108.479,166.8337,232.081,308.271,395.716
54.51194,-70.27191,-11.56544,46.8837,106.944,166.664,232.191,308.264,396.024
54.65506,-70.58105,-9.15399,47.96333,108.398,166.923,231.92,308.232,395.757
54.79819,-70.58851,-10.36153,46.8837,106.631,166.547,231.934,308.468,395.71
54.94131,-70.62985,-10.74264,47.05042,107.741,166.63,232.01,308.035,395.687
55.08444,-69.7756,-10.72311,47.4362,107.325,166.566,231.816,308.205,395.761
55.22756,-69.3672,-9.94134,47.5201,108.719,166.859,232.149,308.377,395.687
55.37068,-69.50833,-10.51914,48.03302,107.318,166.864,231.983,308.354,395.695
55.51381,-69.88349,-8.31711,48.71141,108.921,166.698,231.858,308.501,395.85
55.65693,-67.23496,-6.77156,49.82766,109.511,167.005,232.118,308.297,395.687
55.80006,-66.42735,-5.81964,52.41969,110.122,167.333,231.957,308.675,396.03
55.94318,-62.07799,-2.84234,55.33224,115.2262,168.684,232.315,308.956,395.736
56.08631,-61.3904,2.43708,59.82115,118.148,171.006,233.576,309.682,395.687
56.22943,-56.94439,7.24656,67.16583,122.513,176.857,237.394,312.0252,396.252
56.37256,-48.59769,15.32318,73.14984,131.287,189.449,247.833,320.106,400.025
56.51568,-39.16993,18.99062,79.48078,139.214,213.288,297.327,402.483,432.173
56.65881,-42.21516,18.49698,77.81552,137.937,210.527,295.703,354.469,490.355
56.80193,-49.78936,12.4087,72.7725,132.645,186.764,248.138,316.606,407.381
56.94506,-58.57954,7.90661,70.6912,126.879,174.808,235.62,309.74,395.687
57.08818,-62.1276,0.36531,61.18552,120.306,170.394,233.632,309.979,397.729
57.23131,-66.70873,-3.77865,55.65589,113.265,168.032,232.296,308.67,395.687
57.37443,-65.72168,-7.23766,51.2299,111.505,166.9349,232.393,308.887,395.848
57.51756,-70.10631,-7.85417,49.42932,110.0888,167.096,231.933,308.506,395.878
57.66068,-69.37543,-9.93759,47.71901,108.777,166.69,231.901,308.428,395.941
57.80381,-70.18455,-8.64605,47.46802,108.901,166.857,231.7488,308.588,395.831
57.94693,-69.64578,-9.9684,47.23188,107.483,166.912,232.283,308.465,395.687
58.09006,-70.73536,-9.62601,46.10089,107.8,166.64,232.02,308.268,395.687
58.23318,-71.44632,-10.12741,46.67115,107.182,166.774,231.879,308.246,395.917
58.37631,-70.05437,-10.24078,46.96333,106.798,166.655,232.247,308.284,395.869
58.51943,-69.9428,-9.88354,47.26401,107.441,166.732,231.929,308.132,395.881
58.66256,-70.60424,-9.83316,46.9938,107.474,166.911,232.118,308.378,395.796
58.80568,-70.95007,-10.53558,46.86479,107.691,166.768,231.984,308.271,396.005
58.94881,-70.04417,-11.18381,46.5025,107.6862,166.874,231.7737,308.305,395.969
59.09193,-69.80444,-10.52145,47.23271,107.503,166.723,232.043,308.39,395.687
59.23506,-69.38336,-10.21232,47.15401,107.512,166.7275,232.145,308.083,395.851
59.37818,-70.44058,-9.71109,46.7025,107.951,166.823,232.036,308.209,395.739
59.52131,-69.34232,-10.10461,46.83016,108.609,166.526,232.01,308.428,395.773
59.66443,-71.24739,-11.37019,46.56271,106.732,166.592,232.081,308.306,395.738
59.80756,-70.95214,-10.51222,47.31359,107.277,166.876,232.01,308.521,395.876
59.95068,-70.71271,-10.62811,46.1638,108.08,167.099,232.224,308.533,395.754
60.09381,-70.09224,-11.0284,46.82406,106.768,166.728,231.91,308.175,395.726
60.23693,-70.19948,-11.17693,46.64005,107.123,166.472,231.885,308.468,396.066
60.38006,-70.32513,-10.22714,47.07714,107.712,166.558,232.069,308.3267,395.932
60.52318,-70.79464,-10.47493,47.71214,108.3,166.645,232.077,308.319,395.828
60.66631,-69.84926,-10.50273,47.76156,106.993,166.6313,232.161,308.562,396.028
60.80943,-70.55118,-10.5167,47.44214,108.898,166.748,232.049,308.2974,396.001
60.95255,-70.94753,-9.69173,47.96594,108.703,166.727,232.04,308.399,395.858
61.09568,-70.31361,-10.95454,46.8837,107.232,166.445,232.095,308.207,395.7337
61.2388,-70.849,-9.97594,47.07417,107.481,166.485,231.979,308.487,395.687
61.38193,-69.52658,-9.60534,46.85411,107.472,167.02,231.982,308.607,396.023
61.52505,-69.2538,-9.76855,48.15448,106.796,166.8,232.191,308.623,395.718
61.66818,-69.51746,-9.06038,48.04792,108.195,166.702,232.0138,308.671,395.724
61.8113,-69.92995,-8.58016,51.29589,110.178,166.738,231.888,308.578,395.687
61.95443,-67.65335,-7.94888,50.68969,108.047,167.188,231.937,308.722,395.953
62.09755,-67.65843,-5.73786,51.46026,113.106,167.849,232.001,309,395.687
62.24068,-65.53803,-5.60219,53.13891,110.816,169.6,233.049,308.801,395.887
62.3838,-64.76039,-1.27859,56.38625,114.362,173.034,234.419,310.222,395.835
62.52693,-59.95443,1.29833,60.39125,119.1,178.054,239.405,313.587,396.757
62.67005,-57.99287,3.53172,62.46594,122.94,188.808,252.861,324.799,400.553
62.81318,-52.7173,4.99109,66.96781,126.502,200.546,289.6263,414.429,446.467
62.9563,-54.55234,5.47615,66.10807,125.131,194.704,272.155,339.225,452.337
63.09943,-57.99601,4.1075,61.61859,123.564,181.544,244.096,315.393,405.16
63.24255,-64.04117,-0.46312,58.12505,116.672,174.097,235.868,309.506,396.194
63.38568,-66.12633,-3.82844,54.81708,116.061,169.99,233.651,310.211,395.967
63.5288,-66.5086,-5.88901,52.50495,112.72,168.18,232.437,308.645,396.238
63.67193,-69.89945,-8.80143,51.47979,112.137,167.279,232.232,308.8054,395.853
63.81505,-70.13353,-9.62289,51.64604,107.963,166.865,232.19,308.653,395.797
63.95818,-68.5094,-9.39392,48.275,106.7474,166.885,232.164,308.364,395.876
64.1013,-70.11019,-10.8993,48.28052,108.3588,166.797,232.308,308.599,395.687
64.24443,-69.55567,-9.76581,46.15599,108.131,166.691,232.2062,308.582,395.709
64.38755,-70.55344,-10.51378,47.27109,108.429,166.81,232.063,308.163,395.687
64.53068,-69.91551,-10.01738,47.70391,107.431,166.755,232.01,308.338,395.687
64.6738,-69.13855,-9.55377,48.27536,107.381,166.9075,232.017,308.417,395.805
64.81693,-70.83763,-10.13711,48.04177,106.621,167.322,232.2174,308.473,395.778
64.96005,-69.68209,-11.05821,46.36823,107.979,166.602,231.8701,308.31,395.814
65.10318,-70.19231,-10.41016,47.30234,107.673,166.839,231.8349,308.256,395.924
65.2463,-71.27985,-10.51378,47.45406,107.483,166.915,231.963,308.519,395.928
65.38943,-69.9922,-10.55549,46.45719,109.07,166.961,232.115,308.476,395.978
65.53255,-70.47559,-9.88921,45.9675,108.87,166.847,231.872,308.578,395.687
65.67568,-70.06851,-10.52898,48.07906,109.431,166.775,232.01,308.6,395.85
65.8188,-70.5468,-10.29441,47.51385,106.46,166.829,232.006,308.654,395.74
65.96193,-71.24045,-10.4029,47.92167,108.086,166.966,232.182,308.8177,395.698
66.10505,-68.35679,-10.23274,46.32719,108.729,168.128,233.33,309.547,395.769
66.24818,-70.16399,-8.71867,48.40771,109.362,170.698,237.567,314.712,396.994
66.3913,-70.15395,-9.85089,46.89839,109.425,171.886,241.762,324.215,419.153
66.53442,-69.9525,-9.02853,47.17417,109.161,168.7524,234.647,309.89,396.594
66.67755,-70.35446,-11.51325,47.40562,107.778,167.227,232.114,309.7433,396.056
66.82067,-70.43533,-9.59594,49.07573,107.576,166.968,232.01,308.793,395.777
66.9638,-70.7813,-11.44664,48.13448,108.374,166.446,232.086,308.7458,396.074
67.10692,-70.26772,-8.19827,49.61391,108.18,166.682,231.867,308.586,395.824
67.25005,-68.47727,-6.75755,50.8138,109.222,167.233,231.641,308.786,395.7888
67.39317,-65.71496,-5.64833,52.9775,111.215,168.436,232.7276,309.4633,396.039
67.5363,-64.97189,-4.35365,55.45021,114.584,171.749,234.726,311.226,395.755
67.67942,-63.30047,-2.22354,58.29193,117.24,178.903,240.5751,314.891,397.686
67.82255,-57.56997,1.62495,59.45052,123.531,191.987,261.468,342.189,406.819
67.96567,-56.31823,0.76797,61.31807,123.982,196.356,285.527,393.166,523.299
68.1088,-61.13452,0.98427,60.23281,121.36,183.43,249.972,318.6789,404.804
68.25192,-59.75823,1.10958,57.58703,118.525,174.232,236.2438,312.6707,400.007
68.39505,-65.63331,-3.11719,56.58375,114.516,170.311,232.581,309.653,395.707
68.53817,-66.73386,-7.26849,53.3626,112.251,169.554,232.296,310.026,396.299
68.6813,-64.87329,-5.46891,55.04823,113.221,169.557,232.719,310.012,395.96
68.82442,-64.99023,-5.48526,53.94297,113.004,172.482,235.406,311.7745,396.1376
68.96755,-65.06242,-7.5024,54.11927,115.1287,177.589,246.248,328.973,401.82
69.11067,-65.58132,-5.64443,53.86542,112.575,180.029,256.535,344.704,455.329
69.2538,-67.08678,-5.75615,51.81776,111.794,174.0001,239.2513,313.192,398.978
69.39692,-68.09132,-7.6326,49.87667,110.286,169.358,234.149,309.979,396.561
69.54005,-69.03863,-9.58559,50.36141,109.755,167.082,232.262,308.943,395.822
69.68317,-70.18192,-9.62537,48.5599,108.161,166.839,232.022,308.757,396.159
69.8263,-69.38206,-10.52991,47.05349,108.991,166.651,232.035,308.417,396.017
69.96942,-70.87631,-10.51378,48.04,107.908,166.746,231.963,308.5777,395.687
70.11255,-70.37927,-10.43115,46.38547,107.56,166.87,232.222,308.3764,395.751
70.25567,-70.99324,-10.70768,46.34714,108.237,166.842,232.13,308.382,395.6987
70.3988,-70.78653,-10.30349,47.67307,108.671,166.683,231.912,308.208,395.713
70.54192,-70.2503,-10.3563,46.99714,107.914,166.7763,232.074,308.281,395.832
70.68505,-69.76789,-10.51378,47.1687,106.579,167.008,232.018,308.177,395.995
70.82817,-70.05207,-10.98524,48.29885,107.198,166.768,232.01,308.171,395.819
70.9713,-69.53224,-10.52336,46.90443,108.252,166.832,231.911,308.109,395.687
71.11442,-69.95265,-10.37203,47.67349,107.341,166.985,232.024,307.928,395.687
71.25755,-70.52636,-11.02364,46.64307,107.967,166.901,232.015,307.94,396.062
71.40067,-69.95987,-8.78618,48.23411,107.483,166.747,232.119,308.011,396.048
71.5438,-69.50841,-10.44064,46.62599,106.749,166.7701,232.2062,307.915,395.942
71.68692,-69.93647,-11.32845,46.00255,107.699,166.787,231.94,308.009,395.778
71.83005,-70.5689,-10.77432,46.86818,106.216,166.94,232.114,308.231,395.687
71.97317,-70.06072,-9.04189,47.60521,108.753,166.544,231.963,307.9881,395.799
72.11629,-69.99053,-11.07692,46.86516,108.123,167.115,231.976,307.856,395.999
72.25942,-70.60087,-10.25217,47.54193,107.957,167.049,232.252,308.276,395.978
72.40254,-69.45288,-10.12424,47.35641,107.104,168.17,233.016,309.128,395.98
72.54567,-69.02823,-10.7058,47.2299,107.8151,168.902,236.193,316.284,399.82
72.68879,-70.36177,-10.45829,47.24531,108.712,168.029,234.001,309.706,398.203
72.83192,-70.32153,-10.66031,47.77766,108.471,166.99,232.3049,308.583,396.552
72.97504,-70.53053,-10.5819,47.08406,107.829,167.068,231.738,308.341,395.95
73.11817,-70.21539,-10.16356,47.11792,108.476,167.16,231.905,307.735,395.724
73.26129,-69.82981,-10.49768,46.76375,107.928,166.633,231.82,307.878,395.862
73.40442,-70.35381,-10.24668,46.61969,108.316,166.857,232.018,307.885,395.85
73.54754,-69.97173,-9.71137,48.04073,107.789,166.827,231.829,307.924,395.736
73.69067,-70.6164,-10.12386,47.00865,107.42,166.772,232.037,307.816,396.065
73.83379,-70.62056,-10.44609,46.8837,107.885,166.881,232.2224,307.7211,395.687
73.97692,-69.97544,-10.38007,45.97161,107.2675,166.753,232.075,307.818,395.805
74.12004,-71.03561,-9.58489,46.6974,107.825,166.805,232.291,307.635,395.921
74.26317,-70.43837,-11.07162,47.18302,107.647,166.75,232.114,307.9,395.844
74.40629,-69.9909,-10.55128,46.01766,107.011,166.639,231.9587,307.877,395.917
74.54942,-70.20404,-10.13273,46.79693,107.6838,166.903,231.953,307.776,395.799
74.69254,-71.53034,-9.80066,46.74245,108.293,166.805,232.029,307.825,395.934
74.83567,-70.58274,-10.01707,46.67542,109.0976,166.605,231.956,307.725,395.734
74.97879,-70.23167,-10.15638,47.14693,107.786,167.002,232.01,307.824,395.687
75.12192,-70.15257,-9.92479,47.9151,107.652,166.7275,232.01,307.821,395.687
75.26504,-70.39114,-10.14657,46.85422,107.815,166.807,231.954,307.641,395.76
75.40817,-70.26021,-10.85293,47.5212,107.801,166.769,232.0238,307.769,395.687
75.55129,-69.74268,-8.89639,47.89958,108.059,166.725,232.232,307.777,395.687
75.69442,-70.28765,-10.01986,46.67094,108.027,166.684,231.957,307.802,395.722
75.83754,-70.27915,-10.52267,46.84682,107.997,166.73,232.02,307.85,395.687
75.98067,-69.50643,-9.55014,47.51349,108.591,166.7138,231.883,307.833,395.837
76.12379,-70.04432,-10.01814,46.39021,108.121,166.617,231.898,307.88,395.791
76.26692,-70.46041,-10.43705,47.21458,107.424,166.8288,232.083,307.857,395.768
76.41004,-70.79674,-10.41508,47.07844,109.356,167.0576,231.908,308.333,395.789
76.55317,-70.59611,-10.19522,48.67568,107.728,167.238,232.161,308.214,395.862
76.69629,-70.56866,-9.10532,48.29177,107.3587,167.86,233.175,308.983,395.73
76.83942,-69.9425,-9.32953,48.36031,109.44,169.737,236.128,313.947,397.066
76.98254,-69.33406,-10.04957,47.72521,108.746,169.8874,238.444,318.777,411.837
77.12567,-70.16731,-8.9469,47.64932,108.318,168.831,234.4249,309.38,396.356
77.26879,-69.53126,-9.18636,47.26375,108.58,167.1388,232.351,308.287,395.687
77.41192,-71.41169,-10.63472,47.47594,108.6,166.967,231.994,307.855,395.844
77.55504,-70.19618,-9.80622,47.92104,108.38,166.872,231.866,307.8243,395.932
77.69816,-70.46481,-10.26929,47.06271,107.854,166.722,232.162,308.107,395.996
77.84129,-70.08343,-9.94704,47.25589,109.206,166.629,232.027,307.682,395.687
77.98441,-70.75763,-8.99958,47.8124,107.481,166.893,231.821,307.8778,395.929
78.12754,-70.22046,-9.05292,48.06271,109.443,166.968,232.07,307.581,395.749
78.27066,-70.17604,-9.2961,47.32943,107.426,166.827,232.017,307.697,395.804
78.41379,-71.07372,-9.98242,47.18406,107.807,166.913,232.049,307.791,395.688
78.55691,-71.27367,-10.50089,46.14281,107.644,166.939,231.955,307.716,395.971
78.70004,-70.76007,-10.64295,47.23896,107.437,166.78,232.029,307.768,395.688
78.84316,-69.33098,-10.51378,47.11078,108.016,166.715,232.04,307.629,395.753
78.98629,-70.78981,-9.98355,46.80849,107.071,166.81,232.01,308.005,395.687
79.12941,-70.36272,-10.89646,47.09969,107.377,166.771,232.221,307.73,395.733
79.27254,-70.25929,-10.34165,47.30245,109.001,166.632,232.01,307.799,395.933
79.41566,-69.58059,-10.19946,47.09443,108.196,166.695,232.071,307.6702,395.687
79.55879,-70.0483,-10.79866,47.69375,108.414,166.668,232.034,307.852,395.6887
79.70191,-68.83433,-9.61019,47.39812,108.154,166.788,232.04,307.668,395.814
79.84504,-70.52873,-10.93045,47.61323,107.922,166.705,231.992,307.686,395.8913
79.98816,-69.80481,-9.75556,47.67828,108.091,166.742,231.97,307.6701,395.896
80.13129,-70.92587,-10.36696,47.00953,108.402,166.426,232.0875,307.735,395.708
80.27441,-69.21796,-10.14412,47.57385,108.404,166.78,232.012,307.657,395.766
80.41754,-70.0279,-9.6672,47.07089,107.475,166.743,232.042,307.681,395.687
80.56066,-69.48483,-9.95634,46.63036,107.2,166.727,232.0562,307.802,395.855
80.70379,-70.39379,-10.51378,47.36807,108.432,166.727,232.036,307.85,395.769
80.84691,-69.95511,-9.87193,47.35885,108.856,166.667,232.0225,307.7648,395.687
80.99004,-69.54207,-11.58746,47.04526,107.744,166.901,232.235,308.01,395.883
81.13316,-69.1692,-8.4145,47.35193,107.743,167.109,232.377,308.326,395.774
81.27629,-70.52344,-10.41575,47.30484,107.549,167.379,233.777,310.56,396.406
81.41941,-70.46176,-9.95358,47.07151,107.955,168.101,234.321,312.974,402.62
81.56254,-69.89348,-10.41169,47.28193,108.096,167.149,232.955,308.824,396.353
81.70566,-70.05388,-9.82583,47.75172,107.662,166.926,231.947,308.282,395.687
81.84879,-70.63303,-10.46689,47.24927,107.809,167.131,231.793,307.901,395.736
81.99191,-70.9556,-10.43497,47.80604,107.1576,166.788,232.239,307.837,395.833
82.13504,-69.07027,-10.29203,47.25177,108.273,166.861,232.035,307.678,395.87
82.27816,-70.23923,-9.72935,48.09979,106.713,166.816,232.01,307.623,396.06
82.42129,-70.03187,-11.37972,47.72318,107.431,166.658,231.905,307.59,395.81
82.56441,-70.00663,-9.58634,47.48026,106.591,166.88,232.084,307.654,395.977
82.70754,-70.67501,-10.92082,46.45156,108.103,167.006,232.01,307.686,395.892
82.85066,-70.5938,-9.93042,47.33052,108.045,166.652,232.093,307.631,395.908
82.99379,-70.12658,-10.26029,46.42844,107.9587,166.94,232.174,307.597,395.773
83.13691,-70.90133,-10.28555,46.16688,108.288,166.712,232.164,307.661,395.804
83.28004,-70.36008,-9.42594,46.93734,107.402,166.828,231.983,307.738,395.813
83.42316,-70.45792,-10.52029,46.91474,107.483,166.5937,231.915,307.397,395.8901
83.56628,-70.14938,-10.69009,46.66797,108.272,166.718,232.073,307.804,395.922
83.70941,-69.93614,-10.23363,46.71333,108.933,166.797,232.055,307.661,395.725
83.85253,-70.50258,-10.14757,46.34005,107.873,167.075,232.111,307.799,395.687
83.99566,-70.90606,-10.57642,47.68432,107.899,166.894,231.977,307.886,395.687
84.13878,-70.42055,-10.87402,47.24146,107.731,166.964,231.754,307.555,395.852
84.28191,-70.24924,-10.18114,46.91208,107.228,166.694,231.885,307.564,395.7276
84.42503,-71.0574,-10.20211,48.04359,107.919,166.715,232.01,307.721,395.687
84.56816,-70.31653,-10.51378,47.09599,107.395,166.569,232.093,307.677,395.744
84.71128,-70.31019,-10.19043,48.11786,107.314,166.604,232.2,307.835,395.701
84.85441,-70.73169,-10.26956,47.27911,107.431,166.834,232.137,307.717,395.687
84.99753,-69.7649,-11.12142,46.84797,108.136,166.8651,232.29,307.642,395.759
85.14066,-69.82892,-10.88783,46.58693,107.898,166.74,232.043,307.631,395.964
85.28378,-70.54206,-10.61461,46.34589,108.571,166.734,232.01,307.618,395.998
85.42691,-69.63054,-9.71664,46.8826,107.483,166.856,231.92,307.609,395.91
85.57003,-71.23955,-10.67571,47.91453,107.8999,166.772,231.967,307.686,395.81
85.71316,-69.83104,-9.62636,46.60115,107.324,166.779,232.151,307.5397,395.722
85.85628,-70.62486,-9.7441,46.8487,107.863,166.6525,231.938,307.69,395.832
85.99941,-71.01,-10.51378,46.92526,107.461,166.802,232.155,307.8308,395.858
86.14253,-71.29303,-11.04496,46.91776,107.095,166.779,231.966,307.858,395.719
86.28566,-70.47993,-9.87674,47.04401,107.899,166.5451,231.943,307.532,395.766
86.42878,-69.70232,-10.74355,47.13245,108.13,166.647,232.006,307.687,395.792
86.57191,-70.54508,-10.40987,46.81073,107.502,166.659,232.025,307.733,395.97
86.71503,-70.34172,-9.27089,47.03099,108.499,166.71,231.8549,307.722,395.756
86.85816,-69.2248,-10.02752,47.16615,107.357,166.8325,232.049,307.367,395.687
87.00128,-70.44066,-11.01711,46.15677,107.488,166.614,231.979,307.883,395.687
87.14441,-71.11982,-11.12878,47.48109,108.124,166.738,231.939,307.789,395.728
87.28753,-70.38784,-10.23681,46.55995,107.447,166.7988,231.955,307.6905,395.742
87.43066,-70.62345,-10.31199,47.89063,107.705,166.931,232.037,307.805,395.701
87.57378,-70.32654,-9.72042,47.65115,107.009,167.08,232.01,307.679,395.772
87.71691,-70.7056,-10.28558,47.56318,108.146,166.969,231.879,307.7004,395.773
87.86003,-70.5572,-9.44341,46.97229,107.0737,166.81,231.945,307.753,395.687
88.00316,-70.62004,-10.71804,47.09615,107.7474,166.772,231.777,307.845,395.788
88.14628,-70.06151,-9.08646,46.47333,107.483,166.637,232.113,307.971,395.909
88.28941,-70.17476,-10.41791,46.54318,107.423,166.896,232.01,307.713,395.904
88.43253,-71.05214,-10.80815,47.00276,107.072,166.658,232.113,307.665,395.7412
88.57566,-69.68401,-9.62596,47.06313,107.178,166.645,232.083,307.854,395.941
88.71878,-70.89926,-10.40293,48.15401,108.402,166.546,231.821,307.8,395.746
88.86191,-70.80592,-10.35287,46.68885,107.9449,166.723,232.026,308.0166,395.8738
89.00503,-70.02534,-10.08287,47.02297,106.721,166.893,232.017,308.235,395.693
89.14815,-70.52983,-9.8762,49.4675,108.7887,167.484,232.432,308.729,395.797
89.29128,-68.83807,-10.15351,47.47828,109.609,168.506,233.528,309.203,395.835
89.4344,-69.47641,-9.07182,48.41563,109.154,170.619,237.201,314.494,397.15
89.57753,-69.25034,-8.58382,48.38458,109.347,172.129,244.034,335.852,418.363
89.72065,-69.35401,-8.03407,47.7463,109.698,170.5613,239.715,316.338,406.149
89.86378,-69.65155,-8.31459,47.73042,109.445,168.271,234.012,310.004,395.76
89.98646,-70.5689,-10.51378,46.8837,107.483,166.7275,232.01,309.398,395.687