File: assets/data/P12/uvvis/abscoeff-H2O.dat
260.3 148.615 446.612 2.2674e-08 5.16976e-22 6.60435e-08 9.41067e-16 1.4944e-204 0 446.612 -297.996
261.71 407.973 642.941 6.83034e-08 1.6908e-21 8.76588e-08 1.32932e-15 4.17066e-203 0 642.941 -234.968
263.11 1017.35 907.784 1.99356e-07 5.41482e-21 1.15923e-07 1.8707e-15 1.12386e-201 0 907.784 109.568
264.52 1830.17 1263.3 5.72442e-07 1.72651e-20 1.53353e-07 2.6355e-15 3.06491e-200 0 1263.3 566.876
265.92 2219.1 1724.65 1.59314e-06 5.39143e-20 2.0213e-07 3.69909e-15 8.07167e-199 0 1724.65 494.449
267.33 3062.27 2320.1 4.36062e-06 1.67592e-19 2.66505e-07 5.1976e-15 2.15099e-197 0 2320.1 742.172
268.74 4090.68 3068.49 1.1652e-05 5.14358e-19 3.50796e-07 7.29346e-15 5.66605e-196 0 3068.49 1022.19
270.14 5270.71 3982.67 3.0192e-05 1.54648e-18 4.60086e-07 1.01965e-14 1.44167e-194 0 3982.67 1288.04
271.55 6168.43 5091.83 7.69012e-05 4.62722e-18 6.03591e-07 1.42702e-14 3.71087e-193 0 5091.83 1076.6
272.95 7227.87 6390.14 0.000190004 1.35657e-17 7.89028e-07 1.98977e-14 9.22786e-192 0 6390.14 837.728
274.36 8595.37 7897.54 0.00046131 3.95714e-17 1.03169e-06 2.77735e-14 2.32102e-190 0 7897.54 697.831
275.76 9528.6 9583.27 0.00108683 1.13122e-16 1.3442e-06 3.86244e-14 5.64082e-189 8.34894e-318 9583.27 -54.6641
277.16 11055.7 11435.5 0.00250053 3.19338e-16 1.74849e-06 5.36442e-14 1.35533e-187 4.17073e-315 11435.5 -379.751
278.57 13013.7 13433.3 0.00565048 8.96718e-16 2.27486e-06 7.45809e-14 3.293e-186 2.1168e-312 13433.4 -419.672
279.97 14548.6 15499.3 0.0123964 2.46833e-15 2.9493e-06 1.03311e-13 7.73271e-185 1.00123e-309 15499.3 -950.693
281.38 16511.5 17600.4 0.0267016 6.75729e-15 3.82442e-06 1.43252e-13 1.83589e-183 4.81931e-307 17600.4 -1088.93
282.78 18212.2 19635.2 0.0558578 1.81369e-14 4.9419e-06 1.97914e-13 4.21334e-182 2.16264e-304 19635.2 -1423
284.18 20250.3 21541 0.114113 4.8072e-14 6.3754e-06 2.73076e-13 9.55969e-181 9.45366e-302 21541.1 -1290.86
285.59 22051 23250.2 0.22877 1.26686e-13 8.22598e-06 3.77149e-13 2.19245e-179 4.20309e-299 23250.4 -1199.41
286.99 23887.3 24662.9 0.445646 3.27416e-13 1.05771e-05 5.19011e-13 4.86167e-178 1.74313e-296 24663.3 -776.042
288.39 26100 25726.5 0.847783 8.35629e-13 1.35778e-05 7.13299e-13 1.06581e-176 7.04216e-294 25727.3 372.648
289.79 27370.3 26389.8 1.57502 2.10604e-12 1.74011e-05 9.79032e-13 2.30998e-175 2.77138e-291 26391.3 978.931
291.2 27500.1 26620.1 2.86947 5.27558e-12 2.23034e-05 1.34502e-12 5.05902e-174 1.10844e-288 26623 877.042
292.6 27093.8 26402.9 5.08324 1.29648e-11 2.84894e-05 1.84125e-12 1.07161e-172 4.13857e-286 26408 685.777
294 27644.5 25752.1 8.79394 3.14632e-11 3.63313e-05 2.51725e-12 2.2441e-171 1.50522e-283 25760.8 1883.61
295.4 25825.5 24699.7 14.857 7.54017e-11 4.62555e-05 3.43693e-12 4.64608e-170 5.33293e-281 24714.5 1110.99
296.8 24531.9 23296.4 24.5124 1.78443e-10 5.87937e-05 4.68646e-12 9.50974e-169 1.84054e-278 23320.9 1211
298.2 22302.7 21607.6 39.4954 4.17021e-10 7.46075e-05 6.38191e-12 1.92437e-167 6.18783e-276 21647.1 655.618
299.6 19920.8 19708 62.1457 9.62405e-10 9.45191e-05 8.67935e-12 3.84985e-166 2.0265e-273 19770.1 150.711
301.01 17551.5 17661.7 95.7806 2.20614e-09 0.000119748 1.18141e-11 7.77818e-165 6.73614e-271 17757.5 -206.025
302.41 15418.1 15576 143.708 4.9645e-09 0.000151206 1.60249e-11 1.5208e-163 2.09298e-268 15719.7 -301.617
303.81 12985.4 13508.2 210.566 1.10321e-08 0.000190614 2.1708e-11 2.93972e-162 6.33481e-266 13718.7 -733.31
305.21 11108.1 11520.1 301.301 2.42093e-08 0.000239898 2.93681e-11 5.61792e-161 1.86774e-263 11821.4 -713.305
306.61 9313.83 9661.27 421.036 5.24622e-08 0.000301428 3.96791e-11 1.06141e-159 5.3643e-261 10082.3 -768.482
308.01 7848.66 7967.68 574.571 1.12267e-07 0.000378116 5.354e-11 1.98256e-158 1.5008e-258 8542.25 -693.595
309.4 6826.35 6471.79 764.22 2.35991e-07 0.000472776 7.1995e-11 3.58576e-157 3.93e-256 7236.01 -409.657
310.8 5911.62 5161.93 994.779 4.92516e-07 0.000591115 9.68913e-11 6.5469e-156 1.04355e-253 6156.71 -245.085
312.2 5291.07 4048.72 1264.56 1.01505e-06 0.000737858 1.30226e-10 1.18175e-154 2.69928e-251 5313.29 -22.2167
313.6 4795.86 3122.8 1569.86 2.06582e-06 0.000919515 1.748e-10 2.1089e-153 6.80136e-249 4692.65 103.21
315 4495.21 2368.58 1903.2 4.15183e-06 0.00114401 2.34323e-10 3.72068e-152 1.66939e-246 4271.78 223.425
316.4 4397.77 1766.65 2253.28 8.24001e-06 0.00142097 3.13705e-10 6.48972e-151 3.99149e-244 4019.93 377.837
317.8 4140.57 1295.79 2605.25 1.61494e-05 0.00176208 4.19427e-10 1.1191e-149 9.29665e-242 3901.04 239.529
319.19 4009.29 936.859 2939.35 3.11098e-05 0.00217817 5.58892e-10 1.86967e-148 2.02929e-239 3876.21 133.087
320.59 3922.29 664.579 3241.68 5.94629e-05 0.0026922 7.45297e-10 3.15149e-147 4.48585e-237 3906.26 16.0279
321.99 3867.09 463.594 3491.37 0.000112237 0.00332206 9.92571e-10 5.25175e-146 9.6596e-235 3954.97 -87.8736
323.39 3868.1 318.015 3672.2 0.000209202 0.00409254 1.32015e-09 8.65227e-145 2.02623e-232 3990.22 -122.122
324.78 3787.74 215.141 3771.52 0.00038341 0.00502601 1.75e-09 1.38151e-143 3.98629e-230 3986.66 -198.925
326.18 3839.13 142.733 3783.82 0.000696971 0.0061714 2.32149e-09 2.22479e-142 7.93609e-228 3926.56 -87.4334
327.58 3692.27 93.1198 3707.25 0.00125114 0.00756535 3.07557e-09 3.54211e-141 1.53907e-225 3800.37 -108.103
328.97 3573.54 59.9353 3548.55 0.00220893 0.00924559 4.06115e-09 5.46689e-140 2.80096e-223 3608.5 -34.9511
330.37 3334.84 37.8174 3316.31 0.00386717 0.0112968 5.36629e-09 8.50791e-139 5.15547e-221 3354.15 -19.3042
331.76 3163.57 23.5465 3028.91 0.0066599 0.0137609 7.06758e-09 1.28375e-137 8.90816e-219 3052.47 111.1
333.16 2767.7 14.3689 2700.07 0.011371 0.0167587 9.31452e-09 1.95287e-136 1.55618e-216 2714.47 53.2372
334.56 2327.07 8.62267 2350.55 0.0191722 0.0203761 1.22597e-08 2.937e-135 2.64816e-214 2359.21 -32.1475
335.95 2038.29 5.10788 2000.83 0.0318071 0.0246994 1.60837e-08 4.28367e-134 4.23283e-212 2005.99 32.2934
337.35 1634.73 2.96448 1661.46 0.0523019 0.0299324 2.11141e-08 6.29732e-133 6.83638e-210 1664.5 -29.7684
338.74 1350.41 1.69879 1349.46 0.0846384 0.0361653 2.76281e-08 8.97942e-132 1.03749e-207 1351.28 -0.870098
340.13 1023.29 0.957535 1070.74 0.135281 0.0436253 3.61052e-08 1.26604e-130 1.53433e-205 1071.87 -48.5858
341.53 815.74 0.528595 828.371 0.214254 0.0526088 4.72124e-08 1.79875e-129 2.29149e-203 829.167 -13.4271
342.92 620.435 0.288225 627.161 0.334037 0.0632542 6.15385e-08 2.47943e-128 3.21754e-201 627.846 -7.41092
344.32 435.59 0.153883 462.813 0.515951 0.0760298 8.026e-08 3.44339e-127 4.56073e-199 463.559 -27.9691
345.71 445.725 0.0811692 334.342 0.784645 0.0911172 1.04343e-07 4.64031e-126 6.08011e-197 335.298 110.426
347.1 337.653 0.042113 235.954 1.17857 0.109021 1.35478e-07 6.18325e-125 7.89888e-195 237.284 100.37
348.5 170.783 0.0213863 162.225 1.75335 0.130398 1.76003e-07 8.29913e-124 1.03533e-192 164.13 6.65334
349.89 209.856 0.0107338 109.241 2.56892 0.155513 2.27928e-07 1.08114e-122 1.27704e-190 111.976 97.8803
351.28 108.078 0.00529899 71.8628 3.71749 0.185165 2.9479e-07 1.39265e-121 1.53499e-188 75.7708 32.3075
352.67 142.254 0.0025731 46.1823 5.31333 0.220113 3.80775e-07 1.77381e-120 1.79798e-186 51.7184 90.5359
354.07 173.024 0.00122238 28.894 7.51901 0.261553 4.92102e-07 2.27498e-119 2.12324e-184 36.6758 136.348
355.46 95.819 0.000574201 17.7178 10.4828 0.309907 6.33992e-07 2.83286e-118 2.36129e-182 28.5111 67.3079
356.85 185.102 0.000265304 10.6137 14.4348 0.366605 8.15739e-07 3.48803e-117 2.55902e-180 25.4153 159.687
358.24 86.0775 0.000120572 6.21114 19.6319 0.432973 1.04823e-06 4.24661e-116 2.70256e-178 26.2762 59.8014
359.63 50.0256 5.38976e-05 3.55083 26.3714 0.510526 1.34525e-06 5.11226e-115 2.78134e-176 30.4328 19.5928
361.03 32.5648 2.35572e-05 1.97462 35.058 0.601696 1.72727e-06 6.19459e-114 2.88313e-174 37.6343 -5.06953
362.42 84.959 1.01869e-05 1.07714 45.9363 0.707162 2.21095e-06 7.2906e-113 2.81718e-172 47.7206 37.2384
363.81 101.558 4.33293e-06 0.574002 59.4488 0.829767 2.82641e-06 8.48443e-112 2.6825e-170 60.8526 40.7051
365.2 126.01 1.81278e-06 0.298818 75.9887 0.972049 3.60854e-06 9.76315e-111 2.48909e-168 77.2595 48.7509
366.59 114.482 7.45985e-07 0.151968 95.9341 1.13688 4.60116e-06 1.11087e-109 2.25071e-166 97.223 17.2595
367.98 189.553 3.01952e-07 0.0755004 119.623 1.32751 5.85923e-06 1.24982e-108 1.98323e-164 121.026 68.5266
369.37 197.315 1.20218e-07 0.0366436 147.325 1.54759 7.45167e-06 1.3904e-107 1.70296e-162 148.909 48.4058
370.76 242.443 4.70785e-08 0.017374 179.207 1.80122 9.46466e-06 1.52946e-106 1.42499e-160 181.026 61.4173
372.15 240.668 1.81342e-08 0.00804734 215.305 2.09303 1.20059e-05 1.66358e-105 1.16197e-158 217.406 23.2619
373.54 290.648 6.87064e-09 0.0036413 255.488 2.42816 1.52098e-05 1.7892e-104 9.2332e-157 257.919 32.7284
374.92 309.749 2.57886e-09 0.0016192 299.108 2.80944 1.92114e-05 1.87074e-103 6.93008e-155 301.919 7.82999
376.31 348.308 9.45417e-10 0.000699331 346.274 3.24876 2.42756e-05 1.96733e-102 5.23034e-153 349.523 -1.21525
377.7 415.306 3.40911e-10 0.000295064 395.94 3.75068 3.06352e-05 2.04575e-101 3.84679e-151 399.691 15.6143
379.09 489.666 1.20916e-10 0.000121619 447.155 4.32313 3.86108e-05 2.10346e-100 2.75704e-149 451.478 38.1873
380.48 468.919 4.21838e-11 4.89711e-05 498.776 4.97486 4.86e-05 2.13857e-99 1.92559e-147 503.751 -34.8313
381.87 524.374 1.44754e-11 1.92633e-05 549.504 5.71557 6.10945e-05 2.14991e-98 1.31057e-145 555.219 -30.8455
383.25 589.221 4.92446e-12 7.45411e-06 597.599 6.54948 7.6577e-05 2.10217e-97 8.43466e-144 604.148 -14.9272
384.64 603.215 1.63509e-12 2.79874e-06 642.319 7.50032 9.60166e-05 2.06641e-96 5.45253e-142 649.819 -46.6036
386.03 623.343 5.34007e-13 1.02655e-06 681.883 8.57528 0.000120236 2.0085e-95 3.43482e-140 690.458 -67.115
387.41 660.679 1.72961e-13 3.7059e-07 714.757 9.77915 0.000150128 1.89926e-94 2.04721e-138 724.537 -63.8581
388.8 706.355 5.46575e-14 1.29745e-07 740.276 11.1446 0.000187512 1.80506e-93 1.2249e-136 751.42 -45.0656
390.19 705.848 1.69893e-14 4.43749e-08 757.263 12.6801 0.000233904 1.69632e-92 7.14195e-135 769.943 -64.0953
391.57 729.574 5.23902e-15 1.49451e-08 765.077 14.3907 0.000290937 1.55125e-91 3.94209e-133 779.468 -49.8948
392.96 776.853 1.57569e-15 4.87891e-09 763.544 16.3206 0.000361982 1.42544e-90 2.18311e-131 779.865 -3.01163
394.34 754.438 4.70269e-16 1.56894e-09 752.741 18.4629 0.000449095 1.27481e-89 1.14493e-129 771.204 -16.7665
395.73 834.819 1.36856e-16 4.88885e-10 732.909 20.8712 0.000557325 1.14542e-88 6.02227e-128 753.78 81.039
397.12 810.2 3.91747e-17 1.4882e-10 704.811 23.5555 0.000690746 1.01763e-87 3.08687e-126 728.367 81.8332
398.5 798.765 1.11315e-17 4.46468e-11 669.721 26.5193 0.000853693 8.80138e-87 1.49924e-124 696.241 102.524
399.89 743.608 3.08313e-18 1.29724e-11 628.336 29.8333 0.00105534 7.64588e-86 7.299e-123 658.17 85.4376
401.27 667.083 8.47893e-19 3.71598e-12 582.594 33.4792 0.00130097 6.46711e-85 3.36831e-121 616.074 51.0089
402.65 667.419 2.29411e-19 1.04022e-12 533.624 37.5107 0.00160172 5.40967e-84 1.5153e-119 571.136 96.2832
404.04 531.969 6.04817e-20 2.81875e-13 482.465 41.9942 0.00197243 4.54403e-83 6.82934e-118 524.461 7.50787
405.42 486.423 1.58379e-20 7.53406e-14 431.209 46.9002 0.00242221 3.71726e-82 2.91916e-116 478.112 8.31156
406.81 419.285 4.0402e-21 1.94867e-14 380.36 52.3365 0.00297515 3.05313e-81 1.2496e-114 432.699 -13.4145
408.19 428.421 1.02395e-21 4.97317e-15 331.718 58.2632 0.00364426 2.44258e-80 5.07512e-113 389.985 38.4355
409.57 363.886 2.55315e-22 1.2403e-15 285.785 64.7575 0.00445816 1.93254e-79 2.00936e-111 350.547 13.3391
410.96 340.005 6.19944e-23 2.99183e-16 242.929 71.9143 0.00545478 1.53478e-78 7.96271e-110 314.848 25.1568
412.34 243.414 1.49607e-23 7.12447e-17 204.222 79.6739 0.00665601 1.18754e-77 2.99547e-108 283.902 -40.4882
413.72 228.8 3.55202e-24 1.65793e-17 169.598 88.1296 0.00811142 9.08715e-77 1.09852e-106 257.736 -28.9359
415.1 252.102 8.29708e-25 3.77029e-18 139.134 97.3269 0.00987249 6.8768e-76 3.92723e-105 236.471 15.6305
416.48 192.799 1.90678e-25 8.37881e-19 112.757 107.312 0.0120006 5.14663e-75 1.36868e-103 220.081 -27.2824
417.87 186.246 4.26478e-26 1.79947e-19 90.1219 118.214 0.0145893 3.86473e-74 4.76992e-102 208.351 -22.1046
419.25 171.568 9.48575e-27 3.81834e-20 71.2677 129.925 0.017689 2.82863e-73 1.5795e-100 201.21 -29.642
420.63 113.971 2.07574e-27 7.91776e-21 55.6738 142.567 0.0214198 2.04745e-72 5.0988e-99 198.262 -84.2905
422.01 189.012 4.46888e-28 1.60445e-21 42.9639 156.189 0.0259046 1.46564e-71 1.60455e-97 199.179 -10.167
423.39 126.476 9.46564e-29 3.17724e-22 32.7532 170.839 0.0312884 1.03757e-70 4.92236e-96 203.623 -77.1476
424.77 170.094 1.97254e-29 6.1485e-23 24.6659 186.565 0.0377431 7.26421e-70 1.47208e-94 211.268 -41.174
426.15 163.246 4.04417e-30 1.16275e-23 18.3501 203.412 0.0454714 5.02963e-69 4.29168e-93 221.808 -58.5612
427.53 159.82 8.1575e-31 2.14882e-24 13.4857 221.426 0.0547125 3.44399e-68 1.21972e-91 234.967 -75.1468
428.91 211.386 1.61887e-31 3.88073e-25 9.79051 240.651 0.0657478 2.3322e-67 3.37933e-90 250.507 -39.121
430.29 259.907 3.16075e-32 6.84893e-26 7.02153 261.126 0.0789083 1.56188e-66 9.12719e-89 268.226 -8.31908
431.67 291.818 6.07147e-33 1.18122e-26 4.97456 282.89 0.0945826 1.03445e-65 2.40315e-87 287.959 3.85848
433.05 240.635 1.14742e-33 1.99083e-27 3.48155 305.979 0.113226 6.7756e-65 6.16825e-86 309.574 -68.9385
434.43 289.026 2.13343e-34 3.27896e-28 2.40706 330.423 0.135372 4.38898e-64 1.54341e-84 332.965 -43.9394
435.81 347.599 3.90266e-35 5.27758e-29 1.64397 356.249 0.161643 2.81163e-63 3.76475e-83 358.055 -10.4557
437.19 340.641 7.02371e-36 8.30102e-30 1.10917 383.48 0.192767 1.78128e-62 8.95217e-82 384.782 -44.1405
438.57 350.629 1.24365e-36 1.27593e-30 0.739265 412.132 0.229592 1.11605e-61 2.07519e-80 413.101 -62.4721
439.94 355.953 2.19422e-37 1.94321e-31 0.488237 441.994 0.272761 6.82477e-61 4.58513e-79 442.755 -86.8022
441.32 355.321 3.7611e-38 2.85286e-32 0.317585 473.506 0.324043 4.18244e-60 1.01027e-77 474.148 -118.827
442.7 381.536 6.34271e-39 4.09298e-33 0.204073 506.454 0.384476 2.53483e-59 2.16998e-76 507.043 -125.507
444.08 450.705 1.05235e-39 5.73847e-34 0.129541 540.829 0.4556 1.51931e-58 4.54375e-75 541.414 -90.7091
445.45 513.636 1.7406e-40 7.97704e-35 0.08151 576.35 0.538539 8.89078e-58 9.07523e-74 576.97 -63.3336
446.83 520.722 2.79568e-41 1.06823e-35 0.0504965 613.509 0.636545 5.21229e-57 1.80622e-72 614.196 -93.4744
448.21 532.754 4.41774e-42 1.39793e-36 0.0309035 652.021 0.751429 3.02201e-56 3.50445e-71 652.803 -120.05
449.58 596.992 6.9618e-43 1.81474e-37 0.0187522 691.549 0.884866 1.71105e-55 6.48924e-70 692.453 -95.461
450.96 663.721 1.06497e-43 2.26831e-38 0.0112002 732.62 1.04192 9.70332e-55 1.19673e-68 733.673 -69.9525
452.34 682.926 1.60279e-44 2.77069e-39 0.00660843 774.889 1.22529 5.44197e-54 2.15149e-67 776.121 -93.1957
453.71 719.765 2.40647e-45 3.3589e-40 0.00386708 817.969 1.43742 2.98124e-53 3.69355e-66 819.41 -99.6448
455.09 768.028 3.50609e-46 3.91878e-41 0.00222681 862.409 1.68611 1.6354e-52 6.31161e-65 864.097 -96.069
456.46 801.598 5.09718e-47 4.53912e-42 0.00127196 907.477 1.97304 8.76445e-52 1.03029e-63 909.452 -107.854
457.84 878.954 7.18911e-48 5.05816e-43 0.000714833 953.735 2.30853 4.70265e-51 1.67344e-62 956.044 -77.0899
459.21 912.204 1.01201e-48 5.59789e-44 0.000398567 1000.4 2.69459 2.4655e-50 2.59743e-61 1003.1 -90.8953
460.59 923.468 1.38176e-49 5.95817e-45 0.000218606 1048.05 3.14478 1.29394e-49 4.01003e-60 1051.2 -127.729
461.96 919.586 1.88343e-50 6.30024e-46 0.000118977 1095.86 3.66145 6.63645e-49 5.91828e-59 1099.52 -179.938
463.33 936.189 2.52635e-51 6.51243e-47 6.39794e-05 1144.05 4.25767 3.36671e-48 8.51805e-58 1148.31 -212.118
464.71 1038.06 3.28563e-52 6.47096e-48 3.38348e-05 1192.83 4.95014 1.7093e-47 1.21875e-56 1197.78 -159.717
466.08 1092.94 4.26744e-53 6.39097e-49 1.77601e-05 1241.34 5.74171 8.48301e-47 1.66792e-55 1247.08 -154.141
467.46 1104.05 5.37274e-54 6.0654e-50 9.16638e-06 1290.15 6.65862 4.21264e-46 2.26832e-54 1296.81 -192.755
468.83 1157.6 6.75691e-55 5.7236e-51 4.69662e-06 1338.38 7.70396 2.04525e-45 2.95174e-53 1346.08 -188.484
470.2 1237.38 8.36234e-56 5.27984e-52 2.37763e-06 1386.23 8.90222 9.82167e-45 3.74583e-52 1395.13 -157.745
471.57 1293.59 1.01844e-56 4.76118e-53 1.18926e-06 1433.52 10.274 4.66522e-44 4.6357e-51 1443.79 -150.205
472.95 1281.47 1.20177e-57 4.12301e-54 5.84692e-07 1480.43 11.8544 2.21663e-43 5.69684e-50 1492.28 -210.813
474.32 1349.87 1.4172e-58 3.55238e-55 2.85473e-07 1526.1 13.6466 1.03001e-42 6.70371e-49 1539.75 -189.882
475.69 1462.99 1.64464e-59 2.99204e-56 1.37713e-07 1570.7 15.6901 4.73409e-42 7.69295e-48 1586.39 -123.398
477.06 1492.71 1.87819e-60 2.46352e-57 6.56384e-08 1614.06 18.0169 2.15218e-41 8.60929e-47 1632.08 -139.364
478.43 1547.88 2.11073e-61 1.98284e-58 3.0911e-08 1656 20.6628 9.67764e-41 9.39591e-46 1676.66 -128.782
479.8 1560.93 2.3343e-62 1.56013e-59 1.43827e-08 1696.36 23.6676 4.30435e-40 1.00002e-44 1720.02 -159.089
481.18 1649.95 2.49948e-63 1.17763e-60 6.57439e-09 1735.23 27.1018 1.91414e-39 1.05572e-43 1762.33 -112.383
482.55 1689.12 2.67656e-64 8.85303e-62 2.98599e-09 1771.9 30.9648 8.32859e-39 1.0684e-42 1802.86 -113.74
483.92 1707.07 2.82053e-65 6.50607e-63 1.33996e-09 1806.49 35.3341 3.58441e-38 1.05441e-41 1841.82 -134.756
485.29 1760.48 2.92491e-66 4.67398e-64 5.94115e-10 1838.86 40.2693 1.52585e-37 1.01482e-40 1879.12 -118.649
486.66 1801.44 2.98485e-67 3.28244e-65 2.60267e-10 1868.85 45.8362 6.42473e-37 9.5249e-40 1914.69 -113.251
488.03 1862.54 2.99751e-68 2.25346e-66 1.12653e-10 1896.35 52.1073 2.67574e-36 8.71827e-39 1948.45 -85.9137
489.4 1920.65 2.96228e-69 1.51232e-67 4.81764e-11 1921.21 59.162 1.10225e-35 7.7821e-38 1980.37 -59.7264
490.77 1949.45 2.88084e-70 9.92156e-69 2.03564e-11 1943.34 67.0876 4.49125e-35 6.77424e-37 2010.42 -60.9719
492.13 2010.47 2.80481e-71 6.49233e-70 8.55315e-12 1962.49 75.9109 1.79184e-34 5.66214e-36 2038.4 -27.9269
493.5 2080.86 2.64181e-72 4.07092e-71 3.52837e-12 1978.86 85.8652 7.14354e-34 4.68832e-35 2064.73 16.1346
494.87 2067.84 2.44866e-73 2.49532e-72 1.43812e-12 1992.23 97.003 2.81693e-33 3.78574e-34 2089.23 -21.397
496.24 2086.9 2.23348e-74 1.49521e-73 5.79145e-13 2002.53 109.448 1.09872e-32 2.98113e-33 2111.97 -25.0706
497.61 2166.47 2.00477e-75 8.75829e-75 2.30437e-13 2009.7 123.335 4.23883e-32 2.28933e-32 2133.04 33.4287
498.98 2147.63 1.77082e-76 5.01509e-76 9.05918e-14 2013.73 138.809 1.61753e-31 1.71448e-31 2152.54 -4.91146
500.34 2213.99 1.56704e-77 2.86717e-77 3.54336e-14 2014.59 155.897 6.04661e-31 1.23421e-30 2170.49 43.5022
501.71 2213.04 1.34059e-78 1.56917e-78 1.35999e-14 2012.29 175.018 2.25761e-30 8.79201e-30 2187.31 25.7224
503.08 2253.74 1.1286e-79 8.3951e-80 5.15734e-15 2006.83 196.238 8.33742e-30 6.10777e-29 2203.07 50.6676
504.44 2248.85 9.52208e-81 4.48657e-81 1.94635e-15 1998.31 219.575 3.01699e-29 4.08083e-28 2217.88 30.962
505.81 2239.79 7.76393e-82 2.29418e-82 7.206e-16 1986.63 245.583 1.09015e-28 2.6966e-27 2232.22 7.57463
507.18 2229.01 6.22958e-83 1.14678e-83 2.63597e-16 1971.92 274.326 3.89627e-28 1.73772e-26 2246.24 -17.2342
508.54 2337.73 5.01115e-84 5.72906e-85 9.59851e-17 1954.36 305.807 1.36481e-27 1.07759e-25 2260.17 77.5566
509.91 2264.77 3.89422e-85 2.73712e-86 3.42793e-17 1933.8 340.746 4.7727e-27 6.6053e-25 2274.54 -9.77033
511.27 2331.24 3.03464e-86 1.30736e-87 1.21886e-17 1910.62 378.906 1.63601e-26 3.89761e-24 2289.52 41.7173
512.64 2339.77 2.284e-87 5.9698e-89 4.24977e-18 1884.58 421.142 5.59769e-26 2.27253e-23 2305.72 34.045
514.01 2344.21 1.69166e-88 2.66482e-90 1.46403e-18 1855.97 467.499 1.89443e-25 1.29216e-22 2323.47 20.74
515.37 2410.71 1.25686e-89 1.18982e-91 5.02273e-19 1825.15 517.919 6.28612e-25 7.07672e-22 2343.07 67.6395
516.73 2392.78 9.19151e-91 5.19494e-93 1.70286e-19 1792.06 573.069 2.0635e-24 3.78096e-21 2365.13 27.6507
518.1 2509.36 6.48916e-92 2.16699e-94 5.65919e-20 1756.57 633.769 6.75905e-24 1.99462e-20 2390.33 119.031
519.46 2512.96 4.59724e-93 9.04598e-96 1.87349e-20 1719.34 699.515 2.17123e-23 1.01405e-19 2418.86 94.1056
520.83 2580.45 3.14344e-94 3.60652e-97 6.0787e-21 1680 771.676 6.95854e-23 5.08852e-19 2451.68 128.774
522.19 2666.01 2.15736e-95 1.43941e-98 1.96502e-21 1639.28 849.616 2.18745e-22 2.46164e-18 2488.9 177.113
523.55 2699.2 1.45736e-96 5.61783e-100 6.27727e-22 1597.07 934.272 6.80258e-22 1.16175e-17 2531.34 167.859
524.92 2769.48 9.49862e-98 2.09301e-101 1.96482e-22 1553.2 1026.8 2.11008e-21 5.40872e-17 2579.99 189.488
526.28 2882.19 6.21603e-99 7.81003e-103 6.12893e-23 1508.48 1126.3 6.42146e-21 2.42893e-16 2634.79 247.403
527.64 2931.35 4.00401e-100 2.84983e-104 1.88928e-23 1462.78 1233.93 1.93324e-20 1.06412e-15 2696.71 234.641
529.01 3125.73 2.48756e-101 9.92183e-106 5.70479e-24 1415.92 1351.06 5.80394e-20 4.59645e-15 2766.98 358.749
530.37 3194.73 1.55225e-102 3.46145e-107 1.71715e-24 1368.75 1476.49 1.70992e-19 1.91615e-14 2845.24 349.496
531.73 3329.12 9.53414e-104 1.18089e-108 5.10771e-25 1321.09 1611.57 4.9836e-19 7.79281e-14 2932.67 396.455
533.09 3507.4 5.76407e-105 3.93954e-110 1.50139e-25 1273.12 1756.84 1.43691e-18 3.09181e-13 3029.96 477.44
534.45 3628.25 3.43009e-106 1.28519e-111 4.3612e-26 1224.98 1912.83 4.09855e-18 1.19671e-12 3137.81 490.438
535.81 3755.7 2.00915e-107 4.09991e-113 1.2519e-26 1176.83 2080.1 1.15651e-17 4.51874e-12 3256.93 498.764
537.17 3865.03 1.15837e-108 1.27899e-114 3.55123e-27 1128.82 2259.2 3.22838e-17 1.66457e-11 3388.02 477.013
538.54 4084.94 6.43611e-110 3.80245e-116 9.86182e-28 1080.74 2452.14 8.98181e-17 6.03794e-11 3532.88 552.057
539.9 4248.01 3.59473e-111 1.13411e-117 2.73166e-28 1033.42 2656.67 2.45357e-16 2.11644e-10 3690.09 557.917
541.26 4492.97 1.97623e-112 3.30774e-119 7.47727e-29 986.639 2874.7 6.63056e-16 7.23733e-10 3861.34 631.632
542.62 4761.41 1.0694e-113 9.43395e-121 2.02259e-29 940.513 3106.77 1.77263e-15 2.41438e-09 4047.29 714.125
543.98 4946.01 5.69597e-115 2.63112e-122 5.40657e-30 895.151 3353.44 4.68818e-15 7.8576e-09 4248.59 697.423
545.34 5206.11 2.98625e-116 7.17585e-124 1.42818e-30 850.655 3615.21 1.22661e-14 2.49476e-08 4465.86 740.248
546.69 5465.57 1.57509e-117 1.96562e-125 3.76532e-31 807.431 3890.5 3.15287e-14 7.66394e-08 4697.93 767.647
548.05 5758.17 8.00153e-119 5.12713e-127 9.71398e-32 764.923 4183.86 8.07376e-14 2.31623e-07 4948.79 809.384
549.41 6006.61 4.00101e-120 1.30778e-128 2.47652e-32 723.527 4493.79 2.04533e-13 6.82913e-07 5217.32 789.287
550.77 6352.82 1.96922e-121 3.26196e-130 6.23927e-33 683.309 4820.71 5.12586e-13 1.96429e-06 5504.02 848.793
552.13 6630.08 9.54003e-123 7.95627e-132 1.55337e-33 644.325 5165.02 1.27083e-12 5.51189e-06 5809.35 820.736
553.49 6978.7 4.54918e-124 1.89769e-133 3.82176e-34 606.622 5527.08 3.11691e-12 1.50887e-05 6133.71 844.998
554.84 7267.15 2.18393e-125 4.55054e-135 9.38934e-35 570.5 5904.35 7.51391e-12 4.00091e-05 6474.85 792.301
556.2 7658.99 1.00909e-126 1.03805e-136 2.2561e-35 535.456 6302.68 1.80373e-11 0.000104256 6838.14 820.85
557.56 7948.18 4.58937e-128 2.3156e-138 5.3571e-36 501.785 6719.57 4.28345e-11 0.00026503 7221.36 726.821
558.92 8296.38 2.05449e-129 5.05116e-140 1.25704e-36 469.5 7155.18 1.00631e-10 0.000657275 7624.68 671.702
560.27 8681.09 9.26357e-131 1.10848e-141 2.94647e-37 438.833 7606.2 2.32441e-10 0.00158005 8045.03 636.06
561.63 9024.49 4.01825e-132 2.31258e-143 6.75237e-38 409.33 8079.34 5.34467e-10 0.00373003 8488.67 535.813
562.99 9430.45 1.71564e-133 4.71794e-145 1.52918e-38 381.217 8571.31 1.21575e-09 0.00859032 8952.53 477.915
564.34 9739.13 7.38056e-135 9.68788e-147 3.46025e-39 354.675 9078.17 2.71965e-09 0.0191874 9432.86 306.261
565.7 10079.2 3.05342e-136 1.89028e-148 7.65321e-40 329.295 9607.25 6.05487e-09 0.0420632 9936.58 142.59
567.05 10443.8 1.27309e-137 3.71353e-150 1.69162e-40 305.428 10150.5 1.3259e-08 0.0894656 10456 -12.2161
568.41 10898.2 5.10345e-139 6.92989e-152 3.65404e-41 282.695 10715.6 2.88915e-08 0.186695 10998.5 -100.297
569.76 11369.6 2.06227e-140 1.30248e-153 7.88937e-42 261.401 11293.9 6.19315e-08 0.378123 11555.7 -186.091
571.12 11747.8 8.01052e-142 2.32462e-155 1.66436e-42 241.198 11893.3 1.32081e-07 0.751104 12135.3 -387.438
572.47 12263.5 3.13727e-143 4.18006e-157 3.51015e-43 222.345 12504.5 2.77152e-07 1.4486 12728.3 -464.81
573.83 12737.7 1.1808e-144 7.13519e-159 7.23211e-44 204.526 13135.8 5.78515e-07 2.73908 13343 -605.361
575.18 13247.3 4.48204e-146 1.22749e-160 1.48989e-44 187.961 13777.1 1.18831e-06 5.03037 13970.1 -722.764
576.53 13881.1 1.67497e-147 2.06567e-162 3.03365e-45 172.473 14432 2.41507e-06 9.01589 14613.5 -732.461
577.89 14476.7 6.01336e-149 3.29824e-164 6.03289e-46 157.916 15104.7 4.88141e-06 15.8339 15278.5 -801.81
579.24 15093.6 2.17799e-150 5.31017e-166 1.19991e-46 144.46 15784.2 9.7114e-06 27.0237 15955.7 -862.087
580.59 15828.6 7.76652e-152 8.36299e-168 2.35881e-47 131.948 16474.1 1.91163e-05 45.0105 16651.1 -822.411
581.95 16594.1 2.65966e-153 1.24906e-169 4.52765e-48 120.252 17178.4 3.74145e-05 73.4207 17372.1 -778.033
583.3 17470.1 9.19188e-155 1.882e-171 8.69416e-49 109.5 17885.5 7.20939e-05 116.449 18111.4 -641.362
584.65 18314 3.12761e-156 2.77387e-173 1.65009e-49 99.5563 18598.9 0.000137449 180.245 18878.7 -564.677
586 19229.3 1.04773e-157 3.99925e-175 3.09535e-50 90.3772 19317.3 0.000259282 272.273 19679.9 -450.588
587.35 20166.5 3.45557e-159 5.64026e-177 5.739e-51 81.9189 20038.9 0.000483937 401.383 20522.2 -355.749
588.71 21226.9 1.09387e-160 7.53757e-179 1.0385e-51 74.0834 20767.6 0.000897729 578.972 21420.6 -193.783
590.06 22390.6 3.49658e-162 1.01704e-180 1.88081e-52 66.944 21490.8 0.0016402 812.754 22370.5 20.1378
591.41 23546.6 1.1004e-163 1.34236e-182 3.3667e-53 60.4 22212.1 0.00296507 1113.46 23385.9 160.669
592.76 24610.2 3.40947e-165 1.73312e-184 5.95646e-54 54.4124 22929.6 0.00530344 1488.68 24472.7 137.458
594.11 25992.5 1.04005e-166 2.18885e-186 1.04159e-54 48.9433 23641.5 0.00938569 1942.42 25632.8 359.709
595.46 27133.4 3.12356e-168 2.70416e-188 1.80022e-55 43.9566 24345.8 0.0164346 2473.41 26863.1 270.241
596.81 28441.9 9.23584e-170 3.26795e-190 3.07525e-56 39.4176 25040.5 0.0284734 3073.7 28153.6 288.249
598.16 29987.9 2.68864e-171 3.86318e-192 5.19229e-57 35.2932 25723.7 0.0488095 3727.7 29486.7 501.238
599.51 30862.4 7.7058e-173 4.46728e-194 8.66485e-58 31.552 26393.3 0.0827855 4411.97 30836.9 25.5472
600.86 32359.8 2.17437e-174 5.05323e-196 1.42918e-58 28.1642 27047.4 0.138928 5096.09 32171.8 188.034
602.21 33013.5 6.04057e-176 5.59143e-198 2.32989e-59 25.1017 27683.9 0.230681 5744.54 33453.8 -440.219
603.55 34221.5 1.6969e-177 6.25891e-200 3.8054e-60 22.3575 28296.4 0.377605 6315.65 34634.7 -413.267
604.9 35273.7 4.56994e-179 6.62794e-202 6.06087e-61 19.8657 28892 0.613851 6781.72 35694.2 -420.536
606.25 36008.7 1.2117e-180 6.86571e-204 9.54097e-62 17.6246 29464.3 0.987358 7106.8 36589.7 -580.989
607.6 37725.5 3.16307e-182 6.95697e-206 1.48448e-62 15.6125 30011.3 1.57135 7268.12 37296.6 428.951
608.95 37097.9 8.12929e-184 6.89577e-208 2.28286e-63 13.8088 30531.2 2.47431 7254.08 37801.6 -703.662
610.29 38168.4 2.11387e-185 6.92025e-210 3.51875e-64 12.2062 31018.7 3.84249 7067.72 38102.5 65.9371
611.64 38346.5 5.26663e-187 6.56463e-212 5.28662e-65 10.7632 31479.6 5.92379 6719.6 38215.9 130.603
612.99 38227.2 1.29186e-188 6.09153e-214 7.85041e-66 9.4763 31908.3 9.03593 6234.78 38161.6 65.5686
614.33 38263.3 3.20724e-190 5.72574e-216 1.16875e-66 8.33849 32300.7 13.5964 5650.28 37972.9 290.399
615.68 37267.8 7.62649e-192 5.0848e-218 1.69559e-67 7.31912 32661.2 20.305 4994.03 37682.9 -415.06
617.03 37068.3 1.78545e-193 4.41717e-220 2.43133e-68 6.41454 32985.5 30.003 4307.7 37329.6 -261.317
618.37 37442.6 4.23207e-195 3.8888e-222 3.49618e-69 5.61874 33270.5 43.7431 3631.17 36951 491.578
619.72 37122.1 9.60473e-197 3.23304e-224 4.8978e-70 4.90931 33519.3 63.2816 2983.63 36571.2 550.917
621.06 37134.2 2.2075e-198 2.72489e-226 6.88195e-71 4.28725 33727.5 90.3431 2396.65 36218.8 915.395
622.41 36108.9 4.85671e-200 2.16806e-228 9.41899e-72 3.73452 33897.3 127.958 1875.89 35904.9 203.965
623.75 35393.4 1.08235e-201 1.74935e-230 1.29323e-72 3.25146 34025.7 178.879 1435.92 35643.8 -250.376
625.1 35322.4 2.30844e-203 1.33207e-232 1.72923e-73 2.82364 34114.1 248.049 1070.62 35435.6 -113.238
626.44 35002.5 4.9883e-205 1.02896e-234 2.31997e-74 2.45097 34160.9 339.547 780.94 35283.8 -281.324
627.78 34887.9 1.06149e-206 7.77753e-237 3.07689e-75 2.12428 34166.7 459.957 556.12 35184.9 -296.943
629.13 34723.9 2.16101e-208 5.54517e-239 3.97315e-76 1.83636 34131 617.904 385.541 35136.3 -412.347
630.47 34623.1 4.45893e-210 4.01259e-241 5.14901e-77 1.58677 34054.6 819.617 261.627 35137.4 -514.263
631.81 34632.7 9.06012e-212 2.84121e-243 6.59646e-78 1.36905 33937.5 1075.86 173.325 35188.1 -555.369
633.16 35523.1 1.76061e-213 1.89671e-245 8.22586e-79 1.17809 33779 1400.18 111.727 35292.1 231.02
634.5 35279.7 3.46878e-215 1.28572e-247 1.02974e-79 1.01337 33581.8 1799.7 70.5344 35453.1 -173.424
635.84 36115.9 6.73007e-217 8.52829e-250 1.27431e-80 0.870361 33345.8 2289.13 43.4721 35679.3 436.679
637.18 36902.3 1.28585e-218 5.53536e-252 1.5589e-81 0.746408 33071.6 2881.33 26.1571 35979.9 922.367
638.53 36523.2 2.3485e-220 3.38506e-254 1.85565e-82 0.638401 32757.9 3594.73 15.3029 36368.6 154.568
639.87 38018.5 4.35083e-222 2.10338e-256 2.2182e-83 0.545827 32410.4 4430.61 8.77432 36850.3 1168.15
641.21 39756.2 7.9375e-224 1.2789e-258 2.62122e-84 0.465975 32028.1 5403.98 4.91159 37437.4 2318.76
642.55 39971.8 1.42602e-225 7.609e-261 3.062e-85 0.397204 31612.3 6522.56 2.6841 38137.9 1833.89
643.89 40771.5 2.52287e-227 4.42981e-263 3.53594e-86 0.338073 31164.4 7790.69 1.43201 38956.9 1814.59
645.23 41615 4.39537e-229 2.52355e-265 4.03649e-87 0.287311 30686 9208.46 0.745868 39895.5 1719.44
646.57 42235.4 7.54094e-231 1.40672e-267 4.55514e-88 0.243803 30178.7 10770.9 0.379269 40950.3 1285.17
647.91 44225.3 1.27405e-232 7.67314e-270 5.08157e-89 0.206571 29644.2 12467.2 0.188279 42111.8 2113.46
649.25 45526.3 2.1197e-234 4.0955e-272 5.60392e-90 0.174762 29084.2 14280.5 0.0912482 43364.9 2161.38
650.59 47212.4 3.47291e-236 2.13899e-274 6.10922e-91 0.147628 28500.5 16187.1 0.0431734 44687.8 2524.65
651.93 47357.4 5.60327e-238 1.09315e-276 6.58381e-92 0.124518 27895 18157.1 0.0199424 46052.3 1305.16
653.27 46779.9 8.90266e-240 5.46664e-279 7.01403e-93 0.104868 27269.6 20154.8 0.00899309 47424.6 -644.708
654.61 48385.5 1.39292e-241 2.67504e-281 7.38681e-94 0.088186 26626.3 22139.4 0.00395921 48765.8 -380.222
655.95 49014 2.14617e-243 1.28088e-283 7.69032e-95 0.0740458 25966.9 24066.1 0.00170168 50033 -1019.02
657.29 49748.4 3.25636e-245 6.00144e-286 7.91463e-96 0.0620792 25293.4 25888 0.000714029 51181.5 -1433.16
658.62 51122.5 5.02085e-247 2.86457e-288 8.19107e-97 0.0520373 24613 27546.1 0.000294479 52159.2 -1036.64
659.96 50491.2 7.38846e-249 1.28533e-290 8.23876e-98 0.0434966 23917.4 29019.8 0.00011779 52937.2 -2446.02
661.3 50358.4 1.07068e-250 5.64337e-293 8.19183e-99 0.0363028 23213.5 30253.9 4.59972e-05 53467.5 -3109.14
662.64 54132.5 1.5279e-252 2.42455e-295 8.05191e-100 0.0302531 22503.4 31212.1 1.75357e-05 53715.5 417.04
663.97 51852.3 2.21671e-254 1.06185e-297 7.96141e-101 0.0252082 21794.1 31861.6 6.57548e-06 53655.7 -1803.39
665.31 50916.5 3.06798e-256 4.36881e-300 7.64791e-102 0.0209444 21076.8 32192.2 2.38966e-06 53269 -2352.51
666.65 50139.6 4.18145e-258 1.75887e-302 7.26263e-103 0.0173755 20358.7 32187.4 8.47839e-07 52546.1 -2406.57
667.98 49543.7 5.79599e-260 7.22191e-305 6.93952e-104 0.0144133 19646.8 31851.3 2.9603e-07 51498.1 -1954.34
669.32 50891.6 7.66145e-262 2.78439e-307 6.44044e-105 0.0119214 18932 31189.2 1.00122e-07 50121.2 770.423
670.65 48922.4 1.0302e-263 1.09521e-309 6.01534e-106 0.00985959 18226.7 30231.1 3.33366e-08 48457.7 464.692
671.99 46607.5 1.32072e-265 4.04374e-312 5.45607e-107 0.00813051 17521.6 28991.5 1.07481e-08 46513.2 94.2978
673.32 46479.2 1.72278e-267 1.5237e-314 4.9812e-108 0.0067043 16828.8 27525.1 3.41268e-09 44353.9 2125.25
674.66 43705.9 2.14206e-269 5.38681e-317 4.41559e-109 0.00551197 16139.2 25851.7 1.04887e-09 41990.8 1715.13
675.99 41964.9 2.71054e-271 1.87236e-319 3.9405e-110 0.00453155 15464.2 24041.1 3.17583e-10 39505.4 2459.56
677.33 39785.2 3.26864e-273 0 3.41382e-111 0.00371445 14795.1 22113.4 9.30463e-11 36908.4 2876.78
678.66 36749.6 4.01236e-275 0 2.97791e-112 0.00304466 14142.7 20143.3 2.68661e-11 34286 2463.58
679.99 33684.7 4.85135e-277 0 2.56836e-113 0.00249195 13503.1 18160.5 7.57593e-12 31663.6 2021.08
681.33 30403.5 5.58807e-279 0 2.14989e-114 0.00203344 12872.6 16190.3 2.06605e-12 29062.9 1340.54
682.66 27758.5 6.55439e-281 0 1.81247e-115 0.00165934 12261.3 14297.5 5.55576e-13 26558.8 1199.63
683.99 24841.6 7.57237e-283 0 1.51076e-116 0.00135205 11665.3 12496.4 1.45905e-13 24161.7 679.918
685.33 22123.4 8.33143e-285 0 1.22187e-117 0.00109832 11080.8 10798 3.70372e-14 21878.8 244.682
686.66 19832 9.33743e-287 0 9.95546e-119 0.000892261 10517.1 9244.39 9.27545e-15 19761.5 70.5678
687.99 17492.5 1.03078e-288 0 8.01991e-120 0.000723784 9970.27 7833.11 2.26859e-15 17803.4 -310.849
689.32 15510.4 1.1208e-290 0 6.38779e-121 0.000586247 9440.72 6569.18 5.41879e-16 16009.9 -499.464
690.65 13722.4 1.20039e-292 0 5.03043e-122 0.000474141 8928.72 5452.68 1.26407e-16 14381.4 -658.992
691.99 12174.1 1.22366e-294 0 3.84218e-123 0.000382286 8430.86 4472.71 2.84772e-17 12903.6 -729.471
693.32 10754.5 1.27134e-296 0 2.95761e-124 0.000308261 7954.72 3636.45 6.33489e-18 11591.2 -836.672
694.65 9554.44 1.30105e-298 0 2.25101e-125 0.000248201 7496.6 2926.21 1.37627e-18 10422.8 -868.362
695.98 8404.46 1.31146e-300 0 1.69389e-126 0.000199547 7056.5 2330.53 2.92008e-19 9387.03 -982.57
697.31 7495.29 1.30209e-302 0 1.26028e-127 0.000160191 6634.39 1837.07 6.05074e-20 8471.46 -976.167
698.64 6698.56 1.27339e-304 0 9.27092e-129 0.000128407 6230.16 1433.23 1.22447e-20 7663.39 -964.825
699.97 5995.07 1.22661e-306 0 6.74296e-130 0.000102776 5843.63 1106.7 2.41996e-21 6950.33 -955.263
701.3 5380.7 1.16381e-308 0 4.849e-131 8.21392e-05 5474.61 845.791 4.67085e-22 6320.4 -939.705
702.63 4900.93 1.08765e-310 0 3.44767e-132 6.55487e-05 5122.83 639.761 8.80454e-23 5762.59 -861.662
703.96 4363.71 1.0012e-312 0 2.42367e-133 5.22314e-05 4787.98 478.954 1.62085e-23 5266.94 -903.226
705.28 3981.84 9.40508e-315 0 1.71877e-134 4.16297e-05 4472.06 355.703 2.95218e-24 4827.77 -845.921
706.61 3556.2 8.4042e-317 0 1.18127e-135 3.30738e-05 4169.91 260.879 5.18446e-25 4430.79 -874.59
707.94 3283.51 7.89127e-319 0 8.02695e-137 2.62374e-05 3883.58 189.371 8.89178e-26 4072.95 -789.444
709.27 3037.19 0 0 5.39295e-138 2.07832e-05 3612.63 136.053 1.48935e-26 3748.68 -711.499
710.6 2754.64 0 0 3.58241e-139 1.64383e-05 3356.61 96.7436 2.43631e-27 3453.36 -698.714
711.92 2587.01 0 0 2.40163e-140 1.30056e-05 3116.82 68.2689 3.94654e-28 3185.08 -598.07
713.25 2362.67 0 0 1.55969e-141 1.02563e-05 2889.12 47.557 6.15852e-29 2936.67 -573.999
714.58 2224.95 0 0 1.00148e-142 8.07617e-06 2674.89 32.7889 9.38555e-30 2707.68 -482.727
715.9 2087.78 0 0 6.49145e-144 6.36154e-06 2475.08 22.4401 1.41718e-30 2497.52 -409.738
717.23 1965.39 0 0 4.07502e-145 4.99448e-06 2286.16 15.157 2.06032e-31 2301.31 -335.921
718.56 1849.27 0 0 2.52924e-146 3.91538e-06 2109.15 10.1327 2.92529e-32 2119.29 -270.022
719.88 1682.84 0 0 1.5851e-147 3.07053e-06 1944.76 6.72544 4.11734e-33 1951.49 -268.649
721.21 1629.84 0 0 9.61833e-149 2.4e-06 1789.97 4.4046 5.57668e-34 1794.37 -164.531
722.53 1519.63 0 0 5.89416e-150 1.87661e-06 1646.6 2.86448 7.49037e-35 1649.46 -129.832
723.86 1392.95 0 0 3.49662e-151 1.46247e-06 1511.97 1.83784 9.67806e-36 1513.81 -120.857
725.18 1344.15 0 0 2.09521e-152 1.14018e-06 1387.61 1.17109 1.2405e-36 1388.79 -44.64
726.5 1269.43 0 0 1.24152e-153 8.87615e-07 1272 0.738687 1.55339e-37 1272.74 -3.31505
727.83 1230.45 0 0 7.11989e-155 6.88668e-07 1163.89 0.459572 1.87022e-38 1164.35 66.1023
729.15 1178.76 0 0 4.12531e-156 5.34546e-07 1064.42 0.284032 2.2349e-39 1064.71 114.049
730.48 1032.53 0 0 2.31291e-157 4.13508e-07 971.655 0.173115 2.56682e-40 971.829 60.6984
731.8 1014.96 0 0 1.31038e-158 3.20024e-07 886.544 0.104832 2.92711e-41 886.649 128.31
733.12 934.74 0 0 7.3415e-160 2.47313e-07 807.945 0.0628402 3.26109e-42 808.008 126.732
734.44 935.449 0 0 4.06741e-161 1.90842e-07 735.458 0.0372882 3.54947e-43 735.495 199.954
735.77 857.648 0 0 2.17983e-162 1.4676e-07 668.209 0.0218135 3.71048e-44 668.231 189.418
737.09 815.044 0 0 1.1809e-163 1.12917e-07 606.837 0.0126824 3.85399e-45 606.849 208.195
738.41 798.02 0 0 6.3263e-165 8.67508e-08 550.46 0.00729905 3.91083e-46 550.467 247.553
739.73 683.14 0 0 3.35146e-166 6.65509e-08 498.739 0.00415834 3.87709e-47 498.743 184.397
741.05 702.736 0 0 1.75575e-167 5.09798e-08 451.351 0.0023451 3.75509e-48 451.354 251.383
742.37 684.232 0 0 9.0958e-169 3.89948e-08 407.99 0.00130915 3.55315e-49 407.992 276.24
743.7 657.995 0 0 4.55585e-170 2.97229e-08 368.079 0.000720178 3.22561e-50 368.08 289.915
745.02 626.144 0 0 2.30783e-171 2.26685e-08 331.941 0.000393924 2.91263e-51 331.941 294.202
746.34 611.723 0 0 1.15607e-172 1.72631e-08 299.002 0.000213291 2.56943e-52 299.002 312.72
747.66 592.683 0 0 5.72679e-174 1.31275e-08 269.018 0.00011432 2.21445e-53 269.018 323.664
748.98 530.457 0 0 2.80534e-175 9.96795e-09 241.759 6.0654e-05 1.86454e-54 241.759 288.698
750.29 536.011 0 0 1.39055e-176 7.57371e-09 217.187 3.20126e-05 1.5632e-55 217.187 318.824
751.61 554.272 0 0 6.66177e-178 5.73413e-09 194.728 1.66444e-05 1.25648e-56 194.728 359.545
752.93 471.496 0 0 3.15603e-179 4.33501e-09 174.387 8.56649e-06 9.86674e-58 174.387 297.109
754.25 432.606 0 0 1.47856e-180 3.27248e-09 155.989 4.36442e-06 7.56956e-59 155.989 276.617
755.57 459.837 0 0 6.8499e-182 2.46677e-09 139.37 2.2011e-06 5.67343e-60 139.37 320.467
756.89 382.666 0 0 3.13817e-183 1.85671e-09 124.376 1.09885e-06 4.15431e-61 124.376 258.29
758.21 429.465 0 0 1.42172e-184 1.39548e-09 110.867 5.43035e-07 2.97187e-62 110.867 318.599
759.52 383.2 0 0 6.52132e-186 1.04958e-09 98.7964 2.671e-07 2.11949e-63 98.7964 284.403
760.84 426.433 0 0 2.88938e-187 7.86556e-10 87.8608 1.29352e-07 1.44743e-64 87.8608 338.572
762.16 397.177 0 0 1.26596e-188 5.88583e-10 78.0446 6.20095e-08 9.65692e-66 78.0446 319.132
763.47 387.565 0 0 5.61731e-190 4.40769e-10 69.3076 2.95939e-08 6.4266e-67 69.3076 318.258
764.79 399.772 0 0 2.40699e-191 3.28868e-10 61.4215 1.39027e-08 4.09314e-68 61.4215 338.351
766.11 309.294 0 0 1.01992e-192 2.45018e-10 54.3693 6.46523e-09 2.54689e-69 54.3693 254.924
767.42 279.043 0 0 4.37786e-194 1.82689e-10 48.1159 2.99382e-09 1.58159e-70 48.1159 230.927
768.74 316.538 0 0 1.8142e-195 1.35713e-10 42.4927 1.36433e-09 9.39465e-72 42.4927 274.045
770.05 307.492 0 0 7.61701e-197 1.00897e-10 37.5187 6.19212e-10 5.57121e-73 37.5187 269.974
771.37 309.611 0 0 3.08701e-198 7.47346e-11 33.0571 2.76531e-10 3.15915e-74 33.0571 276.554
772.68 370.014 0 0 1.26777e-199 5.54017e-11 29.1204 1.2301e-10 1.78906e-75 29.1204 340.894
774 261.865 0 0 5.02486e-201 4.09165e-11 25.598 5.38337e-11 9.68451e-77 25.598 236.267
775.31 264.282 0 0 2.01851e-202 3.02443e-11 22.4977 2.34707e-11 5.23743e-78 22.4977 241.784
776.62 253.325 0 0 8.01967e-204 2.23234e-11 19.7503 1.0131e-11 2.76815e-79 19.7503 233.574
777.94 318.74 0 0 3.07436e-205 1.64149e-11 17.301 4.30129e-12 1.39775e-80 17.301 301.439
779.25 291.238 0 0 1.19477e-206 1.20809e-11 15.1532 1.81971e-12 7.05486e-82 15.1532 276.085
780.56 234.778 0 0 4.59234e-208 8.87842e-12 13.2568 7.62183e-13 3.47998e-83 13.2568 221.521
781.88 228.715 0 0 1.70273e-209 6.50004e-12 11.5725 3.13933e-13 1.6391e-84 11.5725 217.143
783.19 279.627 0 0 6.40175e-211 4.76315e-12 10.1009 1.28876e-13 7.72111e-86 10.1009 269.526
784.5 202.286 0 0 2.38052e-212 3.48535e-12 8.80637 5.23794e-14 3.55455e-87 8.80637 193.48
785.81 249.243 0 0 8.7552e-214 2.54666e-12 7.66892 2.10768e-14 1.59927e-88 7.66892 241.574
787.12 278.861 0 0 3.18478e-215 1.85811e-12 6.67073 8.3966e-15 7.03216e-90 6.67073 272.19
788.43 253.733 0 0 1.14581e-216 1.35377e-12 5.79581 3.31175e-15 3.02195e-91 5.79581 247.937
789.75 264.237 0 0 3.97456e-218 9.82506e-13 5.0244 1.2839e-15 1.2387e-92 5.0244 259.213
791.06 251.667 0 0 1.39871e-219 7.1376e-13 4.35536 4.9632e-16 5.08337e-94 4.35536 247.312
792.37 283.756 0 0 4.86837e-221 5.17777e-13 3.77108 1.89953e-16 2.03876e-95 3.77108 279.985
793.68 240.99 0 0 1.67595e-222 3.75065e-13 3.26143 7.19759e-17 7.99121e-97 3.26143 237.729
794.99 284.252 0 0 5.70635e-224 2.71297e-13 2.81743 2.70011e-17 3.06118e-98 2.81743 281.434
796.3 243.129 0 0 1.92166e-225 1.95955e-13 2.43108 1.00284e-17 1.14603e-99 2.43108 240.698
797.61 272.56 0 0 6.40049e-227 1.41333e-13 2.0953 3.68753e-18 4.19311e-101 2.0953 270.465
798.91 250.404 0 0 2.16423e-228 1.02045e-13 1.8059 1.35289e-18 1.53811e-102 1.8059 248.598
800.22 396.502 0 0 7.05209e-230 7.33891e-14 1.55292 4.87651e-19 5.37605e-104 1.55292 394.949
801.53 198.489 0 0 2.27275e-231 5.2704e-14 1.33384 1.74025e-19 1.83642e-105 1.33384 197.155
802.84 297.868 0 0 7.24446e-233 3.77946e-14 1.14436 6.14849e-20 6.1307e-107 1.14436 296.724
804.15 249.294 0 0 2.28392e-234 2.70639e-14 0.980666 2.1507e-20 2.00023e-108 0.980666 248.313
805.46 283.492 0 0 7.12155e-236 1.93519e-14 0.839425 7.44813e-21 6.37794e-110 0.839425 282.652
806.76 259.974 0 0 2.25549e-237 1.38532e-14 0.718564 2.57474e-21 2.04103e-111 0.718564 259.255
808.07 205.936 0 0 6.88036e-239 9.87729e-15 0.613668 8.74064e-22 6.21709e-113 0.613668 205.322
809.38 271.108 0 0 2.07588e-240 7.03231e-15 0.523483 2.9377e-22 1.85079e-114 0.523483 270.585
810.68 267.88 0 0 6.36317e-242 5.01263e-15 0.446587 9.85806e-23 5.5325e-116 0.446587 267.433
811.99 247.622 0 0 1.8782e-243 3.5586e-15 0.380086 3.24787e-23 1.57336e-117 0.380086 247.242
813.29 287.557 0 0 5.63329e-245 2.52935e-15 0.323519 1.06854e-23 4.49453e-119 0.323519 287.234
814.6 286.322 0 0 1.62669e-246 1.7905e-15 0.274716 3.45097e-24 1.22104e-120 0.274716 286.048
815.91 310.651 0 0 4.6459e-248 1.26565e-15 0.233006 1.10343e-24 3.24195e-122 0.233006 310.418
817.21 279.437 0 0 1.34864e-249 8.95745e-16 0.197654 3.524e-25 8.65082e-124 0.197654 279.24
818.52 265.951 0 0 3.76823e-251 6.31359e-16 0.167262 1.10455e-25 2.19418e-125 0.167262 265.784
819.82 349.957 0 0 1.07032e-252 4.45563e-16 0.141563 3.45845e-26 5.59517e-127 0.141563 349.816
821.12 319.8 0 0 3.00734e-254 3.13996e-16 0.119677 1.07226e-26 1.39488e-128 0.119677 319.681
822.43 298.59 0 0 8.13122e-256 2.20368e-16 0.100929 3.26197e-27 3.30367e-130 0.100929 298.489
823.73 183.91 0 0 2.23549e-257 1.54855e-16 0.0851316 9.91536e-28 7.87063e-132 0.0851316 183.825
825.04 219.363 0 0 5.91322e-259 1.08368e-16 0.0716311 2.95685e-28 1.78077e-133 0.0716311 219.292
826.34 245.732 0 0 1.59071e-260 7.5935e-17 0.0602826 8.81185e-29 4.05424e-135 0.0602826 245.672
827.64 260.822 0 0 4.23303e-262 5.31331e-17 0.0506748 2.60031e-29 9.02392e-137 0.0506748 260.771
828.94 249.461 0 0 1.1143e-263 3.71255e-17 0.0425501 7.59809e-30 1.96365e-138 0.0425501 249.418
830.25 225.933 0 0 2.82126e-265 2.5832e-17 0.0356393 2.17743e-30 4.05521e-140 0.0356393 225.897
831.55 377.636 0 0 7.26684e-267 1.79981e-17 0.0298574 6.23782e-31 8.43278e-142 0.0298574 377.606
832.85 261.812 0 0 1.85157e-268 1.25222e-17 0.0249853 1.76947e-31 1.71439e-143 0.0249853 261.787
834.15 335.167 0 0 4.6669e-270 8.69992e-18 0.0208846 4.97018e-32 3.40748e-145 0.0208846 335.146
835.45 290.404 0 0 1.16361e-271 6.03579e-18 0.0174372 1.38237e-32 6.62123e-147 0.0174372 290.386
836.75 258.395 0 0 2.87e-273 4.18155e-18 0.0145424 3.8071e-33 1.25784e-148 0.0145424 258.38
838.05 156.663 0 0 7.00241e-275 2.89283e-18 0.0121145 1.03822e-33 2.33613e-150 0.0121145 156.651
839.35 205.024 0 0 1.69007e-276 1.99845e-18 0.0100805 2.8035e-34 4.2418e-152 0.0100805 205.014
840.65 282.471 0 0 4.03513e-278 1.37862e-18 0.00837859 7.4961e-35 7.52984e-154 0.00837859 282.463
841.95 311.761 0 0 9.53018e-280 9.49689e-19 0.00695613 1.98468e-35 1.30679e-155 0.00695613 311.754
843.25 316.81 0 0 2.22658e-281 6.53283e-19 0.00576863 5.20316e-36 2.2172e-157 0.00576863 316.804
844.55 198.849 0 0 5.14597e-283 4.4875e-19 0.00477846 1.35072e-36 3.6778e-159 0.00477846 198.844
845.85 246.268 0 0 1.17649e-284 3.07816e-19 0.00395377 3.47203e-37 5.96423e-161 0.00395377 246.264
847.15 325.691 0 0 2.66075e-286 2.10844e-19 0.00326772 8.83735e-38 9.4559e-163 0.00326772 325.687
848.45 385.51 0 0 5.95267e-288 1.44216e-19 0.00269766 2.22732e-38 1.46566e-164 0.00269766 385.507
849.74 291.111 0 0 1.35663e-289 9.87931e-20 0.00222784 5.61845e-39 2.29393e-166 0.00222784 291.108
851.04 308.958 0 0 2.97023e-291 6.73831e-20 0.00183505 1.38852e-39 3.39901e-168 0.00183505 308.956
852.34 295.394 0 0 6.43299e-293 4.58944e-20 0.00150981 3.39788e-40 4.92388e-170 0.00150981 295.392
853.64 443.625 0 0 1.37825e-294 3.12141e-20 0.00124081 8.2335e-41 6.97339e-172 0.00124081 443.623
854.93 429.494 0 0 3.00904e-296 2.12628e-20 0.00102013 1.99741e-41 9.97926e-174 0.00102013 429.493
856.23 338.553 0 0 6.30907e-298 1.44206e-20 0.00083649 4.7459e-42 1.35106e-175 0.00083649 338.552
857.52 359.664 0 0 1.34822e-299 9.79569e-21 0.000686188 1.12912e-42 1.84894e-177 0.000686188 359.663
858.82 258.485 0 0 2.76642e-301 6.62476e-21 0.000561397 2.63068e-43 2.39298e-179 0.000561397 258.485
860.12 396.873 0 0 5.61525e-303 4.47392e-21 0.000458781 6.06896e-44 3.02789e-181 0.000458781 396.872
861.41 233.808 0 0 1.16195e-304 3.02627e-21 0.000375085 1.40227e-44 3.87468e-183 0.000375085 233.808
862.71 310.353 0 0 2.30812e-306 2.03797e-21 0.000305836 3.17215e-45 4.68681e-185 0.000305836 310.353
864 276.261 0 0 4.67488e-308 1.37467e-21 0.000249484 7.18805e-46 5.73539e-187 0.000249484 276.261
865.3 182.254 0 0 9.08793e-310 9.23124e-22 0.000202965 1.59444e-46 6.63201e-189 0.000202965 182.254
866.59 263.422 0 0 1.80165e-311 6.20929e-22 0.000165199 3.54328e-47 7.76108e-191 0.000165199 263.422
867.88 280.076 0 0 3.53379e-313 4.17078e-22 0.00013431 7.79812e-48 8.88244e-193 0.00013431 280.075
869.18 314.545 0 0 6.65098e-315 2.78893e-22 0.000108898 1.67964e-48 9.60093e-195 0.000108898 314.545
870.47 348.812 0 0 1.27688e-316 1.86807e-22 8.83388e-05 3.62526e-49 1.05079e-196 8.83388e-05 348.812
871.76 384.487 0 0 2.42469e-318 1.24952e-22 7.15811e-05 7.74909e-50 1.12473e-198 7.15811e-05 384.487
873.06 210.019 0 0 4.53898e-320 8.32e-23 5.78427e-05 1.62071e-50 1.13639e-200 5.78427e-05 210.019
874.35 294.478 0 0 0 5.54949e-23 4.67654e-05 3.39747e-51 1.1632e-202 4.67654e-05 294.478
875.64 321.152 0 0 0 3.69637e-23 3.77675e-05 7.05333e-52 1.16443e-204 3.77675e-05 321.152
876.93 296.095 0 0 0 2.45862e-23 3.04669e-05 1.45017e-52 1.14e-206 3.04669e-05 296.095
878.22 278.877 0 0 0 1.63305e-23 2.45501e-05 2.95277e-53 1.09151e-208 2.45501e-05 278.877
879.51 331.683 0 0 0 1.08318e-23 1.97605e-05 5.95425e-54 1.02208e-210 1.97605e-05 331.683
880.8 294.642 0 0 0 7.17455e-24 1.58876e-05 1.18908e-54 9.36001e-213 1.58876e-05 294.642
882.1 232.782 0 0 0 4.73029e-24 1.27378e-05 2.32225e-55 8.08141e-215 1.27378e-05 232.782
883.39 273.008 0 0 0 3.12437e-24 1.02184e-05 4.54813e-56 7.07732e-217 1.02184e-05 273.008
884.68 196.334 0 0 0 2.06078e-24 8.18821e-06 8.82153e-57 6.06155e-219 8.18821e-06 196.334
885.97 172.868 0 0 0 1.35735e-24 6.55407e-06 1.6945e-57 5.07728e-221 6.55407e-06 172.868
887.25 363.043 0 0 0 8.9569e-25 5.24935e-06 3.26534e-58 4.31742e-223 5.24935e-06 363.043
888.54 226.708 0 0 0 5.88314e-25 4.19243e-06 6.15221e-59 3.4595e-225 4.19243e-06 226.708
889.83 326.328 0 0 0 3.85881e-25 3.34458e-06 1.14794e-59 2.71104e-227 3.34458e-06 326.328
891.12 304.264 0 0 0 2.52749e-25 2.66523e-06 2.12127e-60 2.07773e-229 2.66523e-06 304.264
892.41 226.852 0 0 0 1.65318e-25 2.12151e-06 3.88203e-61 1.55732e-231 2.12151e-06 226.852
893.7 237.968 0 0 0 1.0798e-25 1.68683e-06 7.03571e-62 1.14156e-233 1.68683e-06 237.968
894.98 241.044 0 0 0 7.06641e-26 1.34212e-06 1.2798e-62 8.50382e-236 1.34212e-06 241.044
896.27 193.933 0 0 0 4.60269e-26 1.06477e-06 2.27508e-63 5.96316e-238 1.06477e-06 193.933
897.56 202.988 0 0 0 2.99376e-26 8.43792e-07 4.00533e-64 4.08951e-240 8.43792e-07 202.988
898.85 89.8414 0 0 0 1.94454e-26 6.67932e-07 6.98339e-65 2.74283e-242 6.67932e-07 89.8414
899.7 189.041 0 0 0 1.46219e-26 5.7225e-07 2.1975e-65 1.0018e-243 5.7225e-07 189.041