File: assets/data/P12/uvvis/abscoeff-H2O+EtOH.dat
260.3 186.082 242.242 1.02484e-08 2.30727e-22 6.00973e-08 3.19328e-21 5.11506e-159 242.242 -56.1604
261.71 510.173 359.06 3.12566e-08 7.68447e-22 7.96626e-08 4.95945e-21 6.86568e-158 359.06 151.113
263.11 490.955 521.445 9.2364e-08 2.50518e-21 1.05214e-07 7.66559e-21 8.96687e-157 521.445 -30.4902
264.52 1102.15 745.916 2.68573e-07 8.13027e-21 1.39006e-07 1.18652e-20 1.18213e-155 745.916 356.234
265.92 1471.58 1045.7 7.56909e-07 2.58322e-20 1.82988e-07 1.82781e-20 1.51659e-154 1045.7 425.888
267.33 2288.96 1443.61 2.09834e-06 8.16919e-20 2.40959e-07 2.81964e-20 1.96375e-153 1443.61 845.349
268.74 3028.49 1957.73 5.67949e-06 2.55007e-19 3.1677e-07 4.34232e-20 2.5199e-152 1957.73 1070.77
270.14 3801.6 2602.86 1.49068e-05 7.79533e-19 4.14941e-07 6.65565e-20 3.14735e-151 2602.86 1198.74
271.55 4487.18 3406.56 3.84673e-05 2.37115e-18 5.43686e-07 1.02153e-19 3.96674e-150 3406.56 1080.62
272.95 5499.85 4372.09 9.62916e-05 7.06436e-18 7.09843e-07 1.5605e-19 4.86679e-149 4372.09 1127.76
274.36 6392.46 5522.29 0.000236902 2.09386e-17 9.2701e-07 2.38702e-19 6.02454e-148 5522.29 870.178
275.76 7306.42 6841.73 0.00056557 6.07985e-17 1.20634e-06 3.63424e-19 7.26071e-147 6841.73 464.691
277.16 8307.9 8328.7 0.00131871 1.7429e-16 1.56727e-06 5.52387e-19 8.67305e-146 8328.7 -20.8005
278.57 9595.96 9974.27 0.0030205 4.9693e-16 2.03662e-06 8.40697e-19 1.04509e-144 9974.27 -378.308
279.97 11023.4 11721 0.00671681 1.38837e-15 2.63727e-06 1.27354e-18 1.22629e-143 11721 -697.677
281.38 12335.7 13546.7 0.0146678 3.85727e-15 3.41572e-06 1.93172e-18 1.45134e-142 13546.7 -1211.03
282.78 14027.3 15367.2 0.0311079 1.05032e-14 4.40859e-06 2.91649e-18 1.67285e-141 15367.2 -1339.85
284.18 15613.5 17128.4 0.0644352 2.82358e-14 5.68073e-06 4.39596e-18 1.91108e-140 17128.5 -1514.93
285.59 17133.9 18769.8 0.131 7.54606e-14 7.32108e-06 6.63415e-18 2.20169e-139 18769.9 -1636.02
286.99 18901 20195.6 0.258789 1.9771e-13 9.40267e-06 9.96601e-18 2.47074e-138 20195.9 -1294.83
288.39 20674.7 21351 0.499305 5.11414e-13 1.20563e-05 1.49462e-17 2.74812e-137 21351.5 -676.764
289.79 22492.6 22179.1 0.940878 1.30602e-12 1.54336e-05 2.23778e-17 3.02958e-136 22180.1 312.526
291.2 23419.7 22639.7 1.73901 3.31447e-12 1.97591e-05 3.35444e-17 3.3672e-135 22641.4 778.316
292.6 23789.3 22702.3 3.1253 8.24944e-12 2.5211e-05 5.00551e-17 3.64638e-134 22705.4 1083.87
294 24256.9 22368.4 5.48563 2.02708e-11 3.21145e-05 7.45678e-17 3.91374e-133 22373.8 1883.02
295.4 23245.7 21655.2 9.40391 4.91757e-11 4.08415e-05 1.10899e-16 4.16352e-132 21664.6 1581.06
296.8 22286.2 20599.4 15.7448 1.17779e-10 5.18549e-05 1.64657e-16 4.39001e-131 20615.2 1671.04
298.2 20520.8 19253.6 25.7462 2.78496e-10 6.57304e-05 2.44065e-16 4.58783e-130 19279.3 1241.52
299.6 18358.8 17682 41.1184 6.50138e-10 8.31822e-05 3.61166e-16 4.75212e-129 17723.2 635.636
301.01 16302.5 15943.1 64.3352 1.50729e-09 0.00010527 5.35044e-16 4.96038e-128 16007.4 295.104
302.41 13954.1 14134 97.9924 3.42938e-09 0.000132783 7.89103e-16 5.0471e-127 14232 -277.947
303.81 11921 12311.9 145.775 7.70317e-09 0.000167211 1.16186e-15 5.08986e-126 12457.7 -536.73
305.21 10057 10537.8 211.797 1.70828e-08 0.000210222 1.70783e-15 5.08754e-125 10749.6 -692.582
306.61 8435.1 8862.09 300.542 3.74009e-08 0.000263863 2.50618e-15 5.04018e-124 9162.64 -727.538
308.01 6961.2 7322.99 416.521 8.08428e-08 0.000330649 3.6716e-15 4.94906e-123 7739.51 -778.311
309.4 5879.91 5954.94 562.616 1.71595e-07 0.000413001 5.35543e-15 4.73905e-122 6517.56 -637.654
310.8 5037.29 4751.3 743.894 3.61555e-07 0.000515847 7.8197e-15 4.57162e-121 5495.19 -457.9
312.2 4471.81 3724.87 960.631 7.52107e-07 0.000643249 1.13988e-14 4.37105e-120 4685.5 -213.699
313.6 4114.54 2869.29 1211.57 1.54462e-06 0.000800802 1.65884e-14 4.14227e-119 4080.86 33.6705
315 3902.18 2171.71 1492.41 3.13182e-06 0.000995313 2.41004e-14 3.89071e-118 3664.13 238.059
316.4 3718.2 1615.08 1795.46 6.26914e-06 0.00123504 3.49557e-14 3.62207e-117 3410.54 307.661
317.8 3567.11 1180.18 2109.64 1.23895e-05 0.00153001 5.06158e-14 3.34212e-116 3289.83 277.284
319.19 3475.36 849.425 2418.79 2.40593e-05 0.00188945 7.29772e-14 3.00866e-115 3268.22 207.14
320.59 3380.67 599.327 2711.43 4.6349e-05 0.00233307 1.0532e-13 2.72734e-114 3310.76 69.9104
321.99 3406.84 415.496 2968.57 8.81522e-05 0.00287613 1.51742e-13 2.45044e-113 3384.07 22.774
323.39 3391.41 283.032 3174.25 0.000165524 0.00353979 2.18261e-13 2.18216e-112 3457.29 -65.8758
324.78 3407.5 189.994 3314.24 0.000305513 0.00434308 3.12609e-13 1.89638e-111 3504.24 -96.7391
326.18 3373.57 124.965 3381.01 0.000559201 0.0053278 4.48153e-13 1.65909e-110 3505.98 -132.411
327.58 3377.81 80.7615 3368.64 0.00101051 0.00652508 6.41395e-13 1.43863e-109 3449.41 -71.6026
328.97 3332.64 51.454 3278.93 0.00179546 0.00796694 9.14103e-13 1.21762e-108 3330.39 2.25231
330.37 3125.62 32.1083 3116.79 0.00316271 0.00972548 1.30391e-12 1.03728e-107 3148.91 -23.2872
331.76 2990.8 19.7571 2895.32 0.00547876 0.0118361 1.85217e-12 8.62603e-107 2915.1 75.7004
333.16 2708.69 11.9043 2625.67 0.00940757 0.0144016 2.63323e-12 7.21934e-106 2637.6 71.0919
334.56 2333.73 7.04773 2325.57 0.0159481 0.0174944 3.73741e-12 5.98854e-105 2332.66 1.07777
335.95 1978.71 4.11591 2013.97 0.0265947 0.0211875 5.28261e-12 4.8502e-104 2018.13 -39.4288
337.35 1622.39 2.35285 1701.81 0.0439477 0.0256538 7.47281e-12 3.95263e-103 1704.23 -81.8411
338.74 1369.56 1.3271 1406.52 0.0714519 0.0309688 1.05275e-11 3.14545e-102 1407.95 -38.389
340.13 1080.22 0.735672 1135.73 0.114711 0.0373247 1.48065e-11 2.48125e-101 1136.62 -56.3993
341.53 820.664 0.399038 894.376 0.182445 0.044972 2.08412e-11 1.96908e-100 895.002 -74.3381
342.92 598.923 0.213642 689.227 0.285571 0.0540263 2.92155e-11 1.5262e-99 689.78 -90.8567
344.32 447.319 0.111892 517.814 0.442742 0.0648832 4.09861e-11 1.18989e-98 518.434 -71.1143
345.71 565.193 0.0578582 380.828 0.675651 0.0776939 5.72653e-11 9.06168e-98 381.639 183.553
347.1 376.434 0.0294038 273.639 1.01814 0.0928838 7.98788e-11 6.84076e-97 274.779 101.655
348.5 248.975 0.0146123 191.592 1.51925 0.111005 1.11503e-10 5.19358e-96 193.236 55.7383
349.89 342.398 0.00717211 131.383 2.23206 0.132278 1.55022e-10 3.8523e-95 133.754 208.644
351.28 242.071 0.00345979 88.0221 3.23815 0.157373 2.1517e-10 2.83247e-94 91.4211 150.649
352.67 289.38 0.00164031 57.6155 4.63876 0.186926 2.98164e-10 2.06444e-93 62.4428 226.938
354.07 197.507 0.000760082 36.7236 6.57786 0.221943 4.13453e-10 1.51285e-92 43.5242 153.982
355.46 180.482 0.000348039 22.9407 9.18712 0.262769 5.71037e-10 1.08341e-91 32.3909 148.091
356.85 224.864 0.000156627 14.001 12.6703 0.310602 7.87385e-10 7.69092e-91 26.9821 197.882
358.24 97.1339 6.92756e-05 8.34844 17.2549 0.366551 1.08391e-09 5.412e-90 25.97 71.164
359.63 72.8684 3.01139e-05 4.86345 23.2034 0.431879 1.48966e-09 3.77511e-89 28.4987 44.3697
361.03 92.9688 1.27862e-05 2.75663 30.8724 0.50862 2.04857e-09 2.6468e-88 34.1376 58.8312
362.42 130.278 5.36807e-06 1.53261 40.476 0.597328 2.80612e-09 1.81405e-87 42.606 87.6718
363.81 141.69 2.21498e-06 0.832483 52.4011 0.700375 3.8375e-09 1.23246e-86 53.934 87.7561
365.2 190.227 8.98241e-07 0.441787 66.9881 0.819873 5.23932e-09 8.30013e-86 68.2498 121.977
366.59 128.701 3.58005e-07 0.229057 84.5609 0.95821 7.14144e-09 5.54104e-85 85.7482 42.9528
367.98 157.395 1.40236e-07 0.116029 105.404 1.11808 9.7181e-09 3.66682e-84 106.638 50.7572
369.37 160.512 5.39884e-08 0.0574228 129.735 1.30252 1.32027e-08 2.40536e-83 131.095 29.4175
370.76 220.956 2.04275e-08 0.0277648 157.679 1.51494 1.79072e-08 1.56409e-82 159.221 61.7346
372.15 208.877 7.59633e-09 0.0131159 189.236 1.75915 2.42481e-08 1.00818e-81 191.008 17.869
373.54 282.816 2.77629e-09 0.0060533 224.258 2.03942 3.27802e-08 6.44177e-81 226.303 56.5131
374.92 338.627 1.00467e-09 0.0027454 262.141 2.35808 4.41466e-08 4.02635e-80 264.502 74.1247
376.31 235.654 3.5472e-10 0.00120965 302.934 2.72499 5.94849e-08 2.52808e-79 305.661 -70.007
377.7 331.452 1.23089e-10 0.000520722 345.682 3.14392 8.00204e-08 1.57349e-78 348.826 -17.3741
379.09 413.884 4.19785e-11 0.000219001 389.51 3.62139 1.07468e-07 9.70794e-78 393.132 20.7518
380.48 377.915 1.40704e-11 8.99867e-05 433.387 4.16465 1.44093e-07 5.93722e-77 437.552 -59.6374
381.87 426.668 4.63511e-12 3.61247e-05 476.155 4.78167 1.92882e-07 3.59942e-76 480.936 -54.2678
383.25 444.024 1.51299e-12 1.42654e-05 516.297 5.47589 2.5723e-07 2.13542e-75 521.772 -77.7481
384.64 480.095 4.81492e-13 5.46722e-06 553.146 6.26696 3.43198e-07 1.27217e-74 559.413 -79.3181
386.03 477.048 1.50596e-13 2.04712e-06 585.187 7.16074 4.57143e-07 7.51273e-74 592.347 -115.3
387.41 572.945 4.66902e-14 7.54383e-07 611.149 8.16109 6.06675e-07 4.34246e-73 619.31 -46.3648
388.8 640.301 1.41075e-14 2.69667e-07 630.479 9.29503 8.0545e-07 2.52e-72 639.774 0.526694
390.19 623.812 4.18938e-15 9.41793e-08 642.257 10.5694 1.06759e-06 1.44963e-71 652.826 -29.0139
391.57 567.39 1.23366e-15 3.23871e-08 646.045 11.9883 1.40989e-06 8.16362e-71 658.033 -90.6435
392.96 657.191 3.53912e-16 1.07984e-08 641.755 13.5881 1.86263e-06 4.6148e-70 655.343 1.84714
394.34 725.896 1.00704e-16 3.54634e-09 629.609 15.363 2.45183e-06 2.55413e-69 644.972 80.9242
395.73 640.829 2.79092e-17 1.12882e-09 609.882 17.3573 3.22855e-06 1.41881e-68 627.24 13.5893
397.12 613.999 7.60185e-18 3.51046e-10 583.359 19.5787 4.24432e-06 7.81266e-68 602.938 11.0609
398.5 680.113 2.05451e-18 1.07585e-10 551.237 22.0301 5.55965e-06 4.21285e-67 573.267 106.845
399.89 633.402 5.40605e-19 3.19412e-11 514.159 24.7697 7.28489e-06 2.27962e-66 538.928 94.4734
401.27 572.718 1.41181e-19 9.34854e-12 473.857 27.782 9.51145e-06 1.20811e-65 501.639 71.0793
402.65 547.017 3.62455e-20 2.67408e-12 431.311 31.1112 1.23984e-05 6.34741e-65 462.422 84.5956
404.04 468.164 9.05635e-21 7.4062e-13 387.41 34.8118 1.61661e-05 3.34591e-64 422.222 45.9421
405.42 388.135 2.24667e-21 2.02316e-13 343.923 38.8589 2.10044e-05 1.72771e-63 382.782 5.35322
406.81 399.151 5.42298e-22 5.34945e-14 301.239 43.3412 2.72976e-05 8.94956e-63 344.58 54.5709
408.19 319.411 1.29996e-22 1.39556e-14 260.825 48.2255 3.53519e-05 4.54178e-62 309.051 10.3602
409.57 281.597 3.06342e-23 3.55814e-15 223.039 53.5749 4.57085e-05 2.28506e-61 276.613 4.984
410.96 250.033 7.02153e-24 8.7766e-16 188.128 59.4672 5.9112e-05 1.15308e-60 247.595 2.43788
412.34 216.477 1.59887e-24 2.137e-16 156.903 65.8526 7.61806e-05 5.70159e-60 222.755 -6.27848
413.72 109.639 3.57913e-25 5.08536e-17 129.241 72.8077 9.80185e-05 2.79499e-59 202.049 -92.4106
415.1 94.4477 7.87629e-26 1.18271e-17 105.14 80.3693 0.000125912 1.35835e-58 185.509 -91.0613
416.48 109.742 1.70391e-26 2.68825e-18 84.4742 88.575 0.00016148 6.5447e-58 173.049 -63.3075
417.87 84.1867 3.58306e-27 5.90647e-19 66.9156 97.5302 0.00020713 3.16171e-57 164.446 -80.2593
419.25 110.834 7.49008e-28 1.28211e-19 52.4364 107.145 0.000264778 1.49716e-56 159.582 -48.7474
420.63 69.0837 1.53922e-28 2.71993e-20 40.5818 117.52 0.000337921 7.02845e-56 158.102 -89.0188
422.01 43.9531 3.10953e-29 5.63935e-21 31.0186 128.695 0.00043057 3.27113e-55 159.714 -115.761
423.39 127.636 6.17547e-30 1.14272e-21 23.4157 140.709 0.00054773 1.50933e-54 164.125 -36.4893
424.77 113.995 1.20566e-30 2.263e-22 17.4576 153.598 0.000695641 6.90425e-54 171.057 -57.0623
426.15 157.595 2.314e-31 4.37996e-23 12.8545 167.402 0.00088206 3.13109e-53 180.258 -22.663
427.53 113.55 4.36598e-32 8.28501e-24 9.34804 182.157 0.00111662 1.40774e-52 191.506 -77.9553
428.91 146.217 8.09804e-33 1.53163e-24 6.71395 197.896 0.00141127 6.27474e-52 204.611 -58.3941
430.29 155.665 1.47659e-33 2.76727e-25 4.76244 214.653 0.00178077 2.77278e-51 219.417 -63.7515
431.67 232.257 2.64679e-34 4.88639e-26 3.33636 232.458 0.00224337 1.21474e-50 235.796 -3.53913
433.05 186.898 4.66403e-35 8.43261e-27 2.3084 251.34 0.00282156 5.27591e-50 253.651 -66.753
434.43 206.813 8.07948e-36 1.42224e-27 1.5774 271.322 0.00354302 2.27174e-49 272.903 -66.0903
435.81 232.771 1.3759e-36 2.34435e-28 1.06455 292.428 0.00444172 9.69764e-49 293.497 -60.7263
437.19 279.569 2.30341e-37 3.77668e-29 0.709548 314.674 0.00555936 4.10413e-48 315.389 -35.8198
438.57 219.663 3.79084e-38 5.94615e-30 0.467081 338.073 0.00694693 1.72196e-47 338.547 -118.885
439.94 314.162 6.21498e-39 9.27523e-31 0.304628 362.453 0.00865292 7.08922e-47 362.766 -48.6034
441.32 312.865 9.88598e-40 1.39508e-31 0.195617 388.171 0.0107777 2.92362e-46 388.377 -75.5119
442.7 339.957 1.5459e-40 2.05073e-32 0.124061 415.053 0.0134025 1.19534e-45 415.19 -75.2327
444.08 433.37 2.37642e-41 2.94617e-33 0.0777065 443.09 0.0166394 4.84515e-45 443.184 -9.81463
445.45 397.843 3.64098e-42 4.19622e-34 0.0482396 472.053 0.0205927 1.92756e-44 472.122 -74.2789
446.83 423.326 5.40973e-43 5.7591e-35 0.0294749 502.344 0.0254836 7.67971e-44 502.399 -79.0724
448.21 437.996 7.90158e-44 7.72483e-36 0.0177866 533.728 0.0314851 3.0334e-43 533.777 -95.7806
449.58 461.549 1.15071e-44 1.02776e-36 0.0106408 565.931 0.038778 1.17619e-42 565.981 -104.431
450.96 485.759 1.6245e-45 1.31696e-37 0.00626386 599.383 0.0477556 4.5665e-42 599.437 -113.678
452.34 518.102 2.25453e-46 1.64927e-38 0.00364168 633.801 0.0587162 1.75766e-41 633.864 -115.762
453.71 630.069 3.1208e-47 2.04973e-39 0.00209952 668.871 0.0719687 6.64254e-41 668.945 -38.876
455.09 608.121 4.18616e-48 2.45225e-40 0.00119071 705.038 0.0882008 2.51309e-40 705.128 -97.0068
456.46 627.828 5.60207e-49 2.91246e-41 0.000669775 741.709 0.107762 9.33644e-40 741.818 -113.989
457.84 698.157 7.26297e-50 3.32871e-42 0.000370544 779.338 0.13164 3.47197e-39 779.47 -81.3132
459.21 734.764 9.39658e-51 3.77801e-43 0.00020336 817.295 0.160319 1.26802e-38 817.455 -82.6913
460.59 731.555 1.17747e-51 4.12503e-44 0.00010975 856.038 0.195211 4.6349e-38 856.233 -124.678
461.96 749.633 1.47275e-52 4.4741e-45 5.87669e-05 894.905 0.236976 1.66404e-37 895.142 -145.51
463.33 781.971 1.81132e-53 4.74424e-46 3.10838e-05 934.071 0.287218 5.92364e-37 934.358 -152.388
464.71 863.995 2.15688e-54 4.83713e-47 1.61633e-05 973.709 0.348038 2.11008e-36 974.057 -110.062
466.08 867.116 2.56457e-55 4.90163e-48 8.3413e-06 1013.13 0.420473 7.38414e-36 1013.55 -146.431
467.46 902.994 2.95162e-56 4.77429e-49 4.23111e-06 1052.77 0.507864 2.58542e-35 1053.28 -150.287
468.83 972.153 3.39291e-57 4.62331e-50 2.13041e-06 1091.95 0.611597 8.8942e-35 1092.56 -120.404
470.2 977.654 3.83506e-58 4.37702e-51 1.0596e-06 1130.8 0.73534 3.03378e-34 1131.53 -153.881
471.57 1034.11 4.26245e-59 4.05122e-52 5.20588e-07 1169.2 0.882706 1.02603e-33 1170.08 -135.97
472.95 1043.06 4.58343e-60 3.60183e-53 2.51307e-07 1207.28 1.0593 3.47106e-33 1208.34 -165.284
474.32 1100.3 4.92493e-61 3.18583e-54 1.20465e-07 1244.35 1.26752 1.15402e-32 1245.62 -145.316
475.69 1216.13 5.20353e-62 2.75488e-55 5.70409e-08 1280.55 1.51423 3.80425e-32 1282.06 -65.9337
477.06 1151.92 5.4061e-63 2.32898e-56 2.66799e-08 1315.73 1.80608 1.24344e-31 1317.54 -165.614
478.43 1257.25 5.52278e-64 1.92491e-57 1.23269e-08 1349.76 2.15072 4.02977e-31 1351.91 -94.6603
479.8 1230.98 5.54779e-65 1.55538e-58 5.6259e-09 1382.5 2.55705 1.29491e-30 1385.06 -154.076
481.18 1331.01 5.38772e-66 1.20604e-59 2.5215e-09 1414.03 3.03906 4.1606e-30 1417.07 -86.0681
482.55 1347.11 5.23226e-67 9.31274e-61 1.1228e-09 1443.78 3.60162 1.31428e-29 1447.38 -100.263
483.92 1345.27 4.99645e-68 7.03034e-62 4.93876e-10 1471.83 4.2615 4.11645e-29 1476.09 -130.826
485.29 1428.79 4.69161e-69 5.18868e-63 2.14587e-10 1498.08 5.03422 1.27837e-28 1503.11 -74.3194
486.66 1456.1 4.33182e-70 3.74386e-64 9.21004e-11 1522.4 5.93755 3.93635e-28 1528.34 -72.2441
488.03 1473.1 3.93285e-71 2.64097e-65 3.90473e-11 1544.7 6.99177 1.20179e-27 1551.69 -78.5839
489.4 1514.42 3.511e-72 1.82133e-66 1.63527e-11 1564.86 8.22001 3.63805e-27 1573.08 -58.6565
490.77 1564.8 3.08208e-73 1.228e-67 6.76491e-12 1582.8 9.64856 1.09196e-26 1592.44 -27.6443
492.13 1605.74 2.70855e-74 8.25738e-69 2.78267e-12 1598.32 11.2943 3.22407e-26 1609.62 -3.87762
493.5 1568.07 2.29921e-75 5.32212e-70 1.12335e-12 1611.6 13.2149 9.5142e-26 1624.81 -56.739
494.87 1614.96 1.91914e-76 3.35358e-71 4.4796e-13 1622.43 15.4374 2.78383e-25 1637.87 -22.9138
496.24 1613.16 1.57516e-77 2.06593e-72 1.76455e-13 1630.78 18.0049 8.0763e-25 1648.78 -35.6209
497.61 1644.42 1.27125e-78 1.24423e-73 6.86596e-14 1636.6 20.9658 2.32319e-24 1657.56 -13.1405
498.98 1652.98 1.00884e-79 7.32608e-75 2.639e-14 1639.86 24.3746 6.62609e-24 1664.24 -11.2569
500.34 1750.72 8.0208e-81 4.30633e-76 1.00911e-14 1640.56 28.2618 1.85973e-23 1668.82 81.8947
501.71 1663.52 6.15518e-82 2.42388e-77 3.78494e-15 1638.7 32.7523 5.21496e-23 1671.45 -7.92459
503.08 1709.17 4.64464e-83 1.33382e-78 1.40233e-15 1634.27 37.8956 1.44995e-22 1672.17 37.0003
504.44 1681.84 3.51255e-84 7.33104e-80 5.17032e-16 1627.36 43.7307 3.96787e-22 1671.09 10.7457
505.81 1637.37 2.56308e-85 3.85644e-81 1.86935e-16 1617.9 50.4369 1.08465e-21 1668.33 -30.9596
507.18 1607.35 1.83904e-86 1.9833e-82 6.67627e-17 1605.96 58.0786 2.93984e-21 1664.04 -56.6913
508.54 1655.15 1.32293e-87 1.01927e-83 2.3734e-17 1591.73 66.7037 7.844e-21 1658.44 -3.28982
509.91 1618.58 9.17901e-89 5.01101e-85 8.27174e-18 1575.06 76.5654 2.09026e-20 1651.63 -33.0457
511.27 1649.44 6.38674e-90 2.46264e-86 2.87007e-18 1556.27 87.658 5.484e-20 1643.92 5.5192
512.64 1631.67 4.28515e-91 1.15737e-87 9.76113e-19 1535.16 100.298 1.43678e-19 1635.45 -3.78538
514.01 1637.04 2.8271e-92 5.31775e-89 3.27928e-19 1511.96 114.576 3.73235e-19 1626.53 10.5076
515.37 1667.46 1.87112e-93 2.44363e-90 1.09709e-19 1486.97 130.553 9.54753e-19 1617.52 49.9447
516.73 1590.35 1.21802e-94 1.09817e-91 3.62625e-20 1460.13 148.525 2.42189e-18 1608.65 -18.3025
518.1 1572.75 7.6419e-96 4.7164e-93 1.17443e-20 1431.34 168.86 6.13345e-18 1600.2 -27.4528
519.46 1607.81 4.81162e-97 2.02684e-94 3.7888e-21 1401.15 191.497 1.52986e-17 1592.64 15.1658
520.83 1675.74 2.91922e-98 8.32143e-96 1.19744e-21 1369.23 217.024 3.80917e-17 1586.26 89.4844
522.19 1657.47 1.77784e-99 3.41968e-97 3.77038e-22 1336.2 245.34 9.34242e-17 1581.54 75.9328
523.55 1659.35 1.06491e-100 1.37435e-98 1.17291e-22 1301.94 276.914 2.27219e-16 1578.86 80.4985
524.92 1703.45 6.1441e-102 5.27429e-100 3.57363e-23 1266.34 312.331 5.51545e-16 1578.67 124.778
526.28 1728.98 3.55971e-103 2.027e-101 1.08505e-23 1230.05 351.413 1.31901e-15 1581.46 147.516
527.64 1783.49 2.02845e-104 7.61849e-103 3.2549e-24 1192.95 394.761 3.12802e-15 1587.72 195.77
529.01 1898.29 1.11296e-105 2.7329e-104 9.56033e-25 1154.91 443.129 7.40226e-15 1598.04 300.252
530.37 1874.05 6.13432e-107 9.82235e-106 2.79912e-25 1116.61 496.219 1.72611e-14 1612.83 261.221
531.73 1877.02 3.32542e-108 3.45249e-107 8.09688e-26 1077.91 554.793 3.99144e-14 1632.7 244.322
533.09 2011.11 1.77305e-109 1.18679e-108 2.314e-26 1038.94 619.304 9.15259e-14 1658.24 352.862
534.45 2116.09 9.29803e-111 3.98969e-110 6.53368e-27 999.833 690.228 2.0812e-13 1690.06 426.03
535.81 2192.09 4.79572e-112 1.31169e-111 1.82264e-27 960.712 768.062 4.69287e-13 1728.77 463.315
537.17 2224.12 2.43283e-113 4.2174e-113 5.02334e-28 921.695 853.327 1.04935e-12 1775.02 449.094
538.54 2343.87 1.18731e-114 1.29271e-114 1.35475e-28 882.611 947.279 2.34036e-12 1829.89 513.978
539.9 2441.13 5.82582e-116 3.9746e-116 3.64428e-29 844.141 1049.11 5.14571e-12 1893.26 547.876
541.26 2602.08 2.81155e-117 1.19512e-117 9.68525e-30 806.1 1160.07 1.12192e-11 1966.17 635.919
542.62 2727.21 1.33453e-118 3.51441e-119 2.54308e-30 768.583 1280.73 2.42569e-11 2049.31 677.898
543.98 2836.21 6.23022e-120 1.01069e-120 6.59716e-31 731.68 1411.72 5.20071e-11 2143.4 692.808
545.34 2955.15 2.86071e-121 2.84255e-122 1.69084e-31 695.473 1553.65 1.10572e-10 2249.12 706.029
546.69 3173.92 1.32177e-122 8.02849e-124 4.32517e-32 660.293 1705.99 2.31853e-10 2366.28 807.64
548.05 3324.02 5.87177e-124 2.15995e-125 1.08215e-32 625.686 1871.62 4.84766e-10 2497.31 826.715
549.41 3469.76 2.56552e-125 5.68302e-127 2.67496e-33 591.977 2050.1 1.00509e-09 2642.07 827.686
550.77 3668.5 1.1025e-126 1.46231e-128 6.53277e-34 559.219 2242.05 2.0665e-09 2801.27 867.227
552.13 3816.31 4.65985e-128 3.67979e-130 1.57625e-34 527.457 2448.12 4.21326e-09 2975.58 840.735
553.49 4070.35 1.93714e-129 9.0559e-132 3.75755e-35 496.729 2668.92 8.51838e-09 3165.65 904.697
554.84 4199.86 8.10926e-131 2.24027e-133 8.94473e-36 467.284 2903.25 1.69919e-08 3370.54 829.326
556.2 4438.97 3.26146e-132 5.27388e-135 2.08152e-36 438.708 3155.17 3.37845e-08 3593.88 845.088
557.56 4695.53 1.29014e-133 1.21418e-136 4.78568e-37 411.243 3423.55 6.66113e-08 3834.79 860.745
558.92 4872.96 5.01947e-135 2.73376e-138 1.08707e-37 384.902 3708.9 1.30237e-07 4093.8 779.161
560.27 5109.55 1.96752e-136 6.19132e-140 2.46665e-38 359.872 4009.41 2.51288e-07 4369.28 740.263
561.63 5347.38 7.40595e-138 1.33346e-141 5.46959e-39 335.785 4329.97 4.83163e-07 4665.75 681.628
562.99 5572.97 2.74181e-139 2.80869e-143 1.19826e-39 312.825 4668.79 9.21234e-07 4981.61 591.355
564.34 5845.57 1.02304e-140 5.95366e-145 2.62303e-40 291.142 5023.49 1.73373e-06 5314.64 530.934
565.7 6091.43 3.66429e-142 1.19957e-146 5.60965e-41 270.4 5399.59 3.25083e-06 5669.99 421.438
567.05 6338.68 1.3231e-143 2.43315e-148 1.19895e-41 250.889 5791.73 6.0172e-06 6042.62 296.055
568.41 6650.51 4.58492e-145 4.68954e-150 2.50305e-42 232.298 6205.82 1.10954e-05 6438.12 212.396
569.76 6923.86 1.60207e-146 9.10195e-152 5.22333e-43 214.878 6635.78 2.01992e-05 6850.66 73.2001
571.12 7188.48 5.3711e-148 1.6781e-153 1.06452e-43 198.343 7087.91 3.66287e-05 7286.26 -97.7788
572.47 7499.96 1.81619e-149 3.11661e-155 2.16892e-44 182.909 7555.39 6.55846e-05 7738.3 -238.343
573.83 7770.65 5.89092e-151 5.49649e-157 4.31505e-45 168.314 8044.87 0.000116957 8213.18 -442.536
575.18 8100.87 1.92765e-152 9.76817e-159 8.58401e-46 154.742 8548.76 0.000205966 8703.5 -602.638
576.53 8538.57 6.20543e-154 1.69827e-160 1.68741e-46 142.048 9070.11 0.000359729 9212.16 -673.593
577.89 8850.09 1.91551e-155 2.80237e-162 3.23807e-47 130.112 9612.37 0.000625628 9742.49 -892.395
579.24 9255.97 5.96726e-157 4.6621e-164 6.21483e-48 119.074 10166.8 0.0010747 10285.9 -1029.94
580.59 9730.99 1.8288e-158 7.58758e-166 1.17869e-48 108.806 10736.6 0.00183089 10845.4 -1114.41
581.95 10129.8 5.37238e-160 1.17149e-167 2.18166e-49 99.2036 11325 0.00310544 11424.3 -1294.42
583.3 10636.2 1.59333e-161 1.82441e-169 4.03989e-50 90.3722 11922.5 0.00520343 12012.8 -1376.66
584.65 11215 4.64884e-163 2.77953e-171 7.39226e-51 82.2016 12531.9 0.00864701 12614.1 -1399.13
586 11762.7 1.33439e-164 4.14274e-173 1.33663e-51 74.6558 13152.1 0.0142511 13226.8 -1464.09
587.35 12355.1 3.76809e-166 6.04047e-175 2.3882e-52 67.6994 13781.5 0.0232939 13849.2 -1494.17
588.71 12967.3 1.01931e-167 8.34856e-177 4.16253e-53 61.2524 14423.4 0.0378952 14484.7 -1517.35
590.06 13628.4 2.78542e-169 1.16481e-178 7.26157e-54 55.3752 15066.6 0.0609209 15122 -1493.64
591.41 14365 7.48819e-171 1.58989e-180 1.25178e-54 49.9858 15714 0.0971308 15764.1 -1399.15
592.76 15001 1.98044e-172 2.12297e-182 2.13232e-55 45.0522 16363.9 0.153588 16409.1 -1408.04
594.11 15701.5 5.15285e-174 2.77324e-184 3.58925e-56 40.5437 17014.1 0.240859 17054.9 -1353.41
595.46 16630.7 1.31896e-175 3.54402e-186 5.97006e-57 36.4308 17662.8 0.37461 17699.6 -1068.93
596.81 17306 3.32138e-177 4.4307e-188 9.81251e-58 32.6853 18307.7 0.577834 18340.9 -1034.92
598.16 18091.3 8.22817e-179 5.41894e-190 1.5937e-58 29.2802 18946.7 0.883966 18976.8 -885.541
599.51 18832.4 2.00534e-180 6.4837e-192 2.55776e-59 26.1899 19577.5 1.34115 19605.1 -772.658
600.86 19754.3 4.8081e-182 7.58922e-194 4.05638e-60 23.3901 20198 2.01802 20223.4 -469.123
602.21 20520.7 1.13412e-183 8.69036e-196 6.35687e-61 20.8577 20805.8 3.0115 20829.6 -308.982
603.55 21184.5 2.7063e-185 1.00654e-197 9.98144e-62 18.5873 21394.2 4.44426 21417.3 -232.745
604.9 22165.3 6.17893e-187 1.10325e-199 1.52752e-62 16.5247 21969.9 6.5238 21993 172.36
606.25 22843.6 1.38788e-188 1.183e-201 2.30998e-63 14.6686 22526 9.4975 22550.2 293.424
607.6 23627.9 3.06681e-190 1.24097e-203 3.45186e-64 13.0012 23060.4 13.7128 23087.1 540.781
608.95 24108.3 6.66691e-192 1.27351e-205 5.09712e-65 11.5057 23570.8 19.6359 23601.9 506.41
610.29 24757.8 1.46709e-193 1.32296e-207 7.54454e-66 10.1762 24051.6 27.8144 24089.6 668.266
611.64 25424.8 3.08707e-195 1.29955e-209 1.08791e-66 8.97836 24507.9 39.1777 24556.1 868.763
612.99 25724.4 6.39051e-197 1.24884e-211 1.55018e-67 7.90948 24934.1 54.7288 24996.8 727.663
614.33 26238 1.33961e-198 1.21544e-213 2.21472e-68 6.96389 25325.6 75.6425 25408.2 829.745
615.68 26540.1 2.68423e-200 1.11801e-215 3.08174e-69 6.11623 25686.4 103.941 25796.5 743.564
617.03 26889.8 5.29128e-202 1.00607e-217 4.2374e-70 5.36357 26011.9 141.649 26159 730.866
618.37 27209.7 1.05661e-203 9.17353e-220 5.84343e-71 4.70102 26298.7 191.027 26494.4 715.271
619.72 27344 2.01608e-205 7.9017e-222 7.84621e-72 4.11001 26549.7 256.075 26809.8 534.152
621.06 27493.2 3.89777e-207 6.89877e-224 1.05681e-72 3.59147 26760 339.738 27103.3 389.92
622.41 27592.7 7.19883e-209 5.688e-226 1.38573e-73 3.13043 26931.9 447.981 27383 209.708
623.75 27820.5 1.3475e-210 4.75504e-228 1.82297e-74 2.72724 27061.9 584.7 27649.4 171.149
625.1 28225.1 2.40895e-212 3.75271e-230 2.33427e-75 2.36994 27151.6 758.388 27912.3 312.726
626.44 28303.1 4.36567e-214 3.00389e-232 2.99929e-76 2.05849 27199 973.78 28174.8 128.262
627.78 28647.4 7.78536e-216 2.35304e-234 3.80879e-77 1.78528 27204.9 1240.2 28446.8 200.55
629.13 29033.6 1.32551e-217 1.73924e-236 4.70666e-78 1.54434 27168.7 1569.38 28739.6 293.988
630.47 29465.3 2.28859e-219 1.30452e-238 5.83779e-79 1.33535 27091.2 1966.33 29058.8 406.473
631.81 29977.6 3.88828e-221 9.57517e-241 7.15627e-80 1.1529 26972.5 2443.68 29417.4 560.228
633.16 30592.1 6.30473e-223 6.62853e-243 8.53427e-81 0.99278 26812 3016.89 29829.9 762.218
634.5 31226 1.03708e-224 4.65862e-245 1.02181e-81 0.854557 26612.7 3688.45 30302 923.998
635.84 31977.9 1.67867e-226 3.20409e-247 1.20914e-82 0.734475 26374.5 4472.91 30848.2 1129.69
637.18 32913.8 2.67376e-228 2.15655e-249 1.41411e-83 0.63032 26098.5 5380.19 31479.3 1434.55
638.53 33728.4 4.06245e-230 1.36807e-251 1.60836e-84 0.539499 25783.4 6427.25 32211.1 1517.28
639.87 34419.4 6.26472e-232 8.81668e-254 1.8372e-85 0.461599 25435.2 7605.52 33041.2 1378.2
641.21 36243.3 9.5065e-234 5.56046e-256 2.07412e-86 0.394356 25053.4 8926.76 33980.6 2262.79
642.55 37172.5 1.41953e-235 3.4318e-258 2.31426e-87 0.336402 24639.6 10392.5 35032.4 2140.06
643.89 38400.7 2.0858e-237 2.07272e-260 2.55207e-88 0.286535 24195.5 12000.7 36196.6 2204.18
645.23 39124.1 3.01581e-239 1.22509e-262 2.78148e-89 0.243694 23723.2 13745.4 37468.8 1655.27
646.57 40550.3 4.29083e-241 7.08599e-265 2.99613e-90 0.206947 23224.4 15615.9 38840.5 1709.72
647.91 42180.4 6.00736e-243 4.01089e-267 3.18968e-91 0.175477 22701.4 17597 40298.6 1881.81
649.25 43512.6 8.27619e-245 2.22171e-269 3.35611e-92 0.14857 22156.2 19668.5 41824.9 1687.71
650.59 44681 1.12197e-246 1.20432e-271 3.49002e-93 0.1256 21591 21805.5 43396.7 1284.26
651.93 44368.1 1.49671e-248 6.38855e-274 3.58692e-94 0.106022 21008.1 23978.5 44986.7 -618.621
653.27 46137.7 1.96471e-250 3.31643e-276 3.64348e-95 0.0893612 20409.7 26154.1 46563.8 -426.149
654.61 47602.3 2.53784e-252 1.68479e-278 3.65775e-96 0.0752057 19797.9 28295.5 48093.5 -491.276
655.95 47943.9 3.22578e-254 8.37581e-281 3.62923e-97 0.0631976 19175.2 30363.9 49539.1 -1595.24
657.29 48309.7 4.03468e-256 4.07489e-283 3.5589e-98 0.0530271 18543.6 32319 50862.7 -2552.96
658.62 50596.5 5.13177e-258 2.01919e-285 3.50997e-99 0.0444856 17910.2 34108.1 52018.4 -1421.84
659.96 50383.4 6.2159e-260 9.40913e-288 3.36238e-100 0.037215 17267.5 35719.7 52987.3 -2603.87
661.3 48911.1 7.40876e-262 4.29071e-290 3.18342e-101 0.0310859 16622.5 37103.9 53726.4 -4815.29
662.64 53196.2 8.68943e-264 1.91477e-292 2.97881e-102 0.0259273 15977 38228.9 54206 -1009.79
663.97 53701.8 1.03688e-265 8.70873e-295 2.80432e-103 0.0216219 15338 39063.3 54401.3 -699.538
665.31 50688.5 1.1777e-267 3.72242e-297 2.56341e-104 0.01798 14697.5 39599.6 54297.1 -3608.6
666.65 50662.8 1.31628e-269 1.55705e-299 2.31585e-105 0.014929 14062.3 39817.5 53879.8 -3217.03
667.98 52193.5 1.4973e-271 6.64115e-302 2.1055e-106 0.0123946 13438.6 39713.7 53152.3 -958.816
669.32 49687.3 1.62063e-273 2.66075e-304 1.85819e-107 0.0102607 12818.6 39289.1 52107.7 -2420.39
670.65 50123.4 1.7857e-275 1.08735e-306 1.65064e-108 0.00849349 12213 38560.3 50773.3 -649.95
671.99 48765.1 1.87173e-277 4.17267e-309 1.42308e-109 0.00701019 11614.1 37533.7 49147.8 -382.738
673.32 49287.1 1.99772e-279 1.63381e-311 1.23512e-110 0.00578563 11032 36248.6 47280.6 2006.51
674.66 47454.1 2.02783e-281 6.00524e-314 1.04023e-111 0.00476097 10459 34715.3 45174.4 2279.69
675.99 44942.5 2.09647e-283 2.25291e-316 8.82118e-113 0.00391766 9904.78 32990.8 42895.6 2046.97
677.33 44505.4 2.06086e-285 7.86212e-319 7.25753e-114 0.00321419 9361.78 31086.5 40448.3 4057.13
678.66 41802.7 2.06381e-287 0 6.01319e-115 0.00263702 8838.88 29070 37908.9 3893.86
679.99 38929.3 2.03424e-289 0 4.92492e-116 0.00216029 8332.62 26967 35299.6 3629.77
681.33 35590.8 1.90581e-291 0 3.9124e-117 0.00176446 7839.91 24799.8 32639.7 2951.06
682.66 32974.3 1.8196e-293 0 3.1308e-118 0.00144119 7368.52 22637.9 30006.5 2967.83
683.99 29284.5 1.70994e-295 0 2.47654e-119 0.00117541 6915.05 20499.3 27414.4 1870.19
685.33 26057.5 1.52678e-297 0 1.89964e-120 0.000955741 6476.5 18398.9 24875.4 1182.12
686.66 23082.4 1.38979e-299 0 1.46818e-121 0.000777173 6059.55 16394.4 22454 628.406
687.99 20237.8 1.24517e-301 0 1.12167e-122 0.000631034 5660.9 14491.5 20152.4 85.3305
689.32 17712.1 1.09804e-303 0 8.47092e-124 0.000511618 5280.51 12707.1 17987.6 -275.509
690.65 15408.6 9.53046e-306 0 6.32372e-125 0.000414186 4918.26 11053.3 15971.6 -563.011
691.99 13382.8 7.85492e-308 0 4.57575e-126 0.000334277 4571.43 9527.04 14098.5 -715.707
693.32 11609.8 6.60396e-310 0 3.3375e-127 0.000269816 4244.96 8154.66 12399.6 -789.775
694.65 9958.1 5.46483e-312 0 2.40636e-128 0.000217463 3935.86 6924.16 10860 -901.923
695.98 8595.3 4.45099e-314 0 1.71505e-129 0.000175009 3643.77 5832.34 9476.11 -880.808
697.31 7352.57 3.56827e-316 0 1.20828e-130 0.000140635 3368.27 4873.41 8241.68 -889.107
698.64 6327.14 2.80701e-318 0 8.41475e-132 0.000112846 3108.92 4039.58 7148.49 -821.351
699.97 5476.19 0 0 5.79283e-133 9.04138e-05 2865.2 3321.65 6186.85 -710.662
701.3 4702.1 0 0 3.94201e-134 7.23337e-05 2636.62 2709.47 5346.09 -643.992
702.63 4146.32 0 0 2.65169e-135 5.77836e-05 2422.62 2192.45 4615.07 -468.744
703.96 3536.13 0 0 1.76322e-136 4.6092e-05 2222.63 1759.91 3982.53 -446.406
705.28 3036.61 0 0 1.18298e-137 3.67748e-05 2037.43 1403.85 3441.28 -404.669
706.61 2596.17 0 0 7.68693e-139 2.92477e-05 1863.63 1109 2972.64 -376.464
707.94 2236.37 0 0 4.93751e-140 2.32269e-05 1702.09 869.081 2571.17 -334.799
709.27 1971.08 0 0 3.13502e-141 1.84182e-05 1552.21 675.619 2227.83 -256.753
710.6 1705.29 0 0 1.96767e-142 1.45835e-05 1413.4 521.023 1934.42 -229.132
711.92 1505.4 0 0 1.24663e-143 1.15505e-05 1285.98 399.405 1685.39 -179.986
713.25 1256 0 0 7.64611e-145 9.11878e-06 1167.46 303.126 1470.59 -214.59
714.58 1079.91 0 0 4.63578e-146 7.18834e-06 1058.27 228.216 1286.49 -206.576
715.9 1012.96 0 0 2.83787e-147 5.66841e-06 958.569 170.824 1129.39 -116.429
717.23 841.566 0 0 1.68139e-148 4.45526e-06 866.307 126.569 992.876 -151.31
718.56 764.257 0 0 9.84741e-150 3.49657e-06 781.746 93.0291 874.775 -110.518
719.88 647.805 0 0 5.82473e-151 2.74516e-06 704.932 67.9937 772.926 -125.121
721.21 639.725 0 0 3.33368e-152 2.14811e-06 634.215 49.1829 683.398 -43.6725
722.53 569.481 0 0 1.92729e-153 1.68156e-06 570.194 35.381 605.575 -36.0944
723.86 465.041 0 0 1.07792e-154 1.31196e-06 511.455 25.1866 536.641 -71.6006
725.18 436.184 0 0 6.09087e-156 1.02401e-06 458.457 17.8333 476.291 -40.1069
726.5 366.807 0 0 3.4027e-157 7.98101e-07 410.342 12.5274 422.869 -56.0618
727.83 388.687 0 0 1.83854e-158 6.1994e-07 366.417 8.70673 375.123 13.5634
729.15 371.571 0 0 1.00389e-159 4.8176e-07 326.984 6.01991 333.004 38.5669
730.48 306.618 0 0 5.30068e-161 3.73115e-07 291.107 4.11754 295.224 11.3939
731.8 275.206 0 0 2.82888e-162 2.89104e-07 259.005 2.80207 261.807 13.3984
733.12 241.204 0 0 1.49262e-163 2.23683e-07 230.102 1.89185 231.994 9.21041
734.44 310.111 0 0 7.78644e-165 1.72814e-07 204.121 1.26724 205.388 104.723
735.77 199.372 0 0 3.92652e-166 1.33056e-07 180.637 0.839543 181.477 17.8952
737.09 185.331 0 0 2.00201e-167 1.02497e-07 159.764 0.553507 160.318 25.0131
738.41 235.257 0 0 1.0092e-168 7.88409e-08 141.093 0.36205 141.455 93.8013
739.73 201.124 0 0 5.02968e-170 6.05566e-08 124.419 0.234953 124.654 76.4701
741.05 159.021 0 0 2.47832e-171 4.64449e-08 109.553 0.151273 109.704 49.3163
742.37 228.12 0 0 1.20734e-172 3.55698e-08 96.32 0.0966284 96.4167 131.704
743.7 154.906 0 0 5.68268e-174 2.71461e-08 84.4758 0.0610242 84.5368 70.3696
745.02 179.1 0 0 2.70578e-175 2.07292e-08 74.0507 0.0383666 74.0891 105.011
746.34 159.071 0 0 1.27375e-176 1.5806e-08 64.8158 0.0239315 64.8397 94.2315
747.66 182.829 0 0 5.9283e-178 1.20346e-08 56.6484 0.0148099 56.6632 126.166
748.98 102.235 0 0 2.7279e-179 9.14968e-09 49.4367 0.00909291 49.4458 52.7892
750.29 138.593 0 0 1.27048e-180 6.96077e-09 43.1242 0.00555985 43.1298 95.463
751.61 211.978 0 0 5.7149e-182 5.27681e-09 37.523 0.00336024 37.5264 174.452
752.93 121.181 0 0 2.54158e-183 3.99441e-09 32.6009 0.00201486 32.6029 88.5784
754.25 157.021 0 0 1.11751e-184 3.01927e-09 28.2824 0.00119863 28.2836 128.737
755.57 138.586 0 0 4.85797e-186 2.27886e-09 24.4995 0.000707443 24.5002 114.086
756.89 121.895 0 0 2.0879e-187 1.71752e-09 21.1911 0.000414251 21.1915 100.704
758.21 163.64 0 0 8.87194e-189 1.29256e-09 18.3023 0.000240659 18.3025 145.338
759.52 180.965 0 0 3.81793e-190 9.73446e-10 15.8016 0.000139294 15.8017 165.163
760.84 180.344 0 0 1.58591e-191 7.30469e-10 13.6071 7.96582e-05 13.6072 166.737
762.16 169.248 0 0 6.51306e-193 5.47342e-10 11.7001 4.51954e-05 11.7001 157.548
763.47 187.958 0 0 2.70959e-194 4.1043e-10 10.057 2.55521e-05 10.057 177.901
764.79 206.922 0 0 1.08781e-195 3.06645e-10 8.62193 1.42708e-05 8.62195 198.3
766.11 126.431 0 0 4.31772e-197 2.2877e-10 7.38067 7.90745e-06 7.38067 119.05
767.42 113.117 0 0 1.73653e-198 1.70805e-10 6.31626 4.36689e-06 6.31627 106.801
768.74 164.372 0 0 6.73794e-200 1.27058e-10 5.39096 2.38187e-06 5.39096 158.981
770.05 117.402 0 0 2.64956e-201 9.45918e-11 4.59997 1.29498e-06 4.59997 112.802
771.37 154.622 0 0 1.00499e-202 7.01609e-11 3.9145 6.95294e-07 3.9145 150.707
772.68 240.968 0 0 3.86391e-204 5.20828e-11 3.33035 3.72156e-07 3.33035 237.638
774 95.9468 0 0 1.43272e-205 3.8519e-11 2.82569 1.96692e-07 2.82569 93.1211
775.31 182.235 0 0 5.38572e-207 2.85117e-11 2.39697 1.03646e-07 2.39697 179.838
776.62 210.625 0 0 2.00195e-208 2.1074e-11 2.03033 5.41923e-08 2.03033 208.595
777.94 181.757 0 0 7.175e-210 1.55182e-11 1.71505 2.79738e-08 1.71505 180.042
779.25 205.829 0 0 2.60766e-211 1.1437e-11 1.44845 1.43994e-08 1.44845 204.381
780.56 136.614 0 0 9.37147e-213 8.41712e-12 1.22151 7.35457e-09 1.22151 135.392
781.88 157.829 0 0 3.24646e-214 6.17116e-12 1.02726 3.70784e-09 1.02726 156.802
783.19 151.489 0 0 1.14074e-215 4.52862e-12 0.863771 1.86442e-09 0.863771 150.625
784.5 194.916 0 0 3.96359e-217 3.3185e-12 0.725237 9.30217e-10 0.725237 194.191
785.81 191.621 0 0 1.36182e-218 2.42826e-12 0.608032 4.60514e-10 0.608032 191.013
787.12 132.858 0 0 4.62677e-220 1.77429e-12 0.509023 2.26214e-10 0.509023 132.349
788.43 200.884 0 0 1.55441e-221 1.29458e-12 0.425513 1.10259e-10 0.425513 200.459
789.75 241.997 0 0 5.03122e-223 9.40937e-13 0.354693 5.30279e-11 0.354693 241.643
791.06 155.888 0 0 1.65264e-224 6.84566e-13 0.295633 2.54454e-11 0.295633 155.593
792.37 267.947 0 0 5.36799e-226 4.97332e-13 0.246047 1.21152e-11 0.246047 267.701
793.68 202.785 0 0 1.72414e-227 3.6079e-13 0.204478 5.72364e-12 0.204478 202.58
794.99 171.172 0 0 5.47597e-229 2.61361e-13 0.169684 2.68307e-12 0.169684 171.003
796.3 215.788 0 0 1.7198e-230 1.89061e-13 0.140605 1.24798e-12 0.140605 215.647
797.61 194.51 0 0 5.34099e-232 1.36565e-13 0.116339 5.75974e-13 0.116339 194.393
798.91 246.168 0 0 1.68446e-233 9.8751e-14 0.0962606 2.65349e-13 0.0962606 246.072
800.22 280.705 0 0 5.1156e-235 7.11276e-14 0.0794157 1.2058e-13 0.0794157 280.625
801.53 119.486 0 0 1.53625e-236 5.11578e-14 0.0654228 5.43686e-14 0.0654228 119.421
802.84 179.531 0 0 4.56199e-238 3.6742e-14 0.0538167 2.43243e-14 0.0538167 179.477
804.15 255.188 0 0 1.3396e-239 2.63505e-14 0.0442048 1.07982e-14 0.0442048 255.144
805.46 237.934 0 0 3.88976e-241 1.88709e-14 0.0362565 4.75641e-15 0.0362565 237.898
806.76 231.433 0 0 1.14759e-242 1.35297e-14 0.0297394 2.0921e-15 0.0297394 231.403
808.07 163.601 0 0 3.25859e-244 9.66163e-15 0.0243211 9.07346e-16 0.0243211 163.576
809.38 256.23 0 0 9.14952e-246 6.88953e-15 0.0198609 3.90464e-16 0.0198609 256.211
810.68 304.977 0 0 2.61093e-247 4.91851e-15 0.0162203 1.67819e-16 0.0162203 304.961
811.99 246.354 0 0 7.16898e-249 3.49728e-15 0.0132071 7.11069e-17 0.0132071 246.34
813.29 258.351 0 0 2.00088e-250 2.48967e-15 0.010755 3.00944e-17 0.010755 258.34
814.6 218.286 0 0 5.37249e-252 1.76522e-15 0.00873165 1.2555e-17 0.00873165 218.277
815.91 287.56 0 0 1.42646e-253 1.24977e-15 0.00707857 5.19717e-18 0.00707857 287.553
817.21 256.672 0 0 3.85083e-255 8.85913e-16 0.00573935 2.1493e-18 0.00573935 256.666
818.52 314.945 0 0 9.99838e-257 6.25434e-16 0.00463923 8.76011e-19 0.00463923 314.941
819.82 290.546 0 0 2.63993e-258 4.4209e-16 0.00375065 3.56741e-19 0.00375065 290.543
821.12 303.138 0 0 6.89378e-260 3.12051e-16 0.0030279 1.44167e-19 0.0030279 303.135
822.43 245.804 0 0 1.73098e-261 2.19359e-16 0.00243685 5.74096e-20 0.00243685 245.802
823.73 160.921 0 0 4.42102e-263 1.54397e-16 0.00196159 2.2846e-20 0.00196159 160.919
825.04 319.203 0 0 1.08555e-264 1.08225e-16 0.00157409 8.95757e-21 0.00157409 319.201
826.34 205.12 0 0 2.71174e-266 7.59587e-17 0.00126343 3.51018e-21 0.00126343 205.119
827.64 301.391 0 0 6.69959e-268 5.32371e-17 0.00101263 1.36502e-21 0.00101263 301.39
828.94 251.574 0 0 1.63701e-269 3.72595e-17 0.000810442 5.26766e-22 0.000810442 251.573
830.25 247.457 0 0 3.84414e-271 2.59685e-17 0.000646572 2.00238e-22 0.000646572 247.456
831.55 280.442 0 0 9.18691e-273 1.81233e-17 0.000515979 7.60919e-23 0.000515979 280.441
832.85 285.73 0 0 2.1714e-274 1.26303e-17 0.000411171 2.86946e-23 0.000411171 285.729
834.15 376.404 0 0 5.07591e-276 8.78979e-18 0.00032718 1.07382e-23 0.00032718 376.404
835.45 142.472 0 0 1.17352e-277 6.10841e-18 0.000259971 3.98778e-24 0.000259971 142.471
836.75 237.956 0 0 2.68328e-279 4.239e-18 0.000206271 1.46961e-24 0.000206271 237.956
838.05 162.727 0 0 6.068e-281 2.93755e-18 0.000163428 5.37453e-25 0.000163428 162.727
839.35 250.167 0 0 1.35715e-282 2.0328e-18 0.000129297 1.95051e-25 0.000129297 250.166
840.65 171.788 0 0 3.00199e-284 1.40472e-18 0.000102147 7.02468e-26 0.000102147 171.788
841.95 299.803 0 0 6.56742e-286 9.69324e-19 8.05815e-05 2.51058e-26 8.05815e-05 299.803
843.25 293.017 0 0 1.42096e-287 6.67937e-19 6.34776e-05 8.90412e-27 6.34776e-05 293.017
844.55 242.54 0 0 3.04068e-289 4.59609e-19 4.99321e-05 3.13385e-27 4.99321e-05 242.54
845.85 240.94 0 0 6.43519e-291 3.15812e-19 3.92205e-05 1.09454e-27 3.92205e-05 240.94
847.15 266.691 0 0 1.34696e-292 2.16698e-19 3.07625e-05 3.79366e-28 3.07625e-05 266.691
848.45 381.454 0 0 2.78836e-294 1.48479e-19 2.40937e-05 1.30483e-28 2.40937e-05 381.454
849.74 281.817 0 0 5.8824e-296 1.01891e-19 1.88792e-05 4.49077e-29 1.88792e-05 281.817
851.04 412.866 0 0 1.19121e-297 6.96183e-20 1.47442e-05 1.52118e-29 1.47442e-05 412.866
852.34 336.392 0 0 2.38576e-299 4.75005e-20 1.14982e-05 5.11339e-30 1.14982e-05 336.392
853.64 261.036 0 0 4.7257e-301 3.23638e-20 8.95397e-06 1.70572e-30 8.95397e-06 261.035
854.93 330.934 0 0 9.54254e-303 2.2085e-20 6.97617e-06 5.69483e-31 6.97617e-06 330.934
856.23 310.804 0 0 1.84903e-304 1.5005e-20 5.41696e-06 1.87087e-31 5.41696e-06 310.804
857.52 332.189 0 0 3.65305e-306 1.02108e-20 4.20843e-06 6.15223e-32 4.20843e-06 332.189
858.82 337.8 0 0 6.92431e-308 6.91791e-21 3.25846e-06 1.99049e-32 3.25846e-06 337.8
860.12 347.631 0 0 1.29807e-309 4.68034e-21 2.51929e-06 6.39081e-33 2.51929e-06 347.631
861.41 286.866 0 0 2.48179e-311 3.1716e-21 1.94888e-06 2.05426e-33 1.94888e-06 286.866
862.71 367.284 0 0 4.55122e-313 2.13972e-21 1.50247e-06 6.49556e-34 1.50247e-06 367.284
864 379.348 0 0 8.51348e-315 1.44592e-21 1.15898e-06 2.05652e-34 1.15898e-06 379.348
865.3 248.355 0 0 1.52726e-316 9.7275e-22 8.90942e-07 6.40409e-35 8.90942e-07 248.355
866.59 257.013 0 0 2.79611e-318 6.55504e-22 6.85304e-07 1.99705e-35 6.85304e-07 257.013
867.88 367.727 0 0 5.10716e-320 4.41108e-22 5.26381e-07 6.18073e-36 5.26381e-07 367.727
869.18 176.224 0 0 0 2.95509e-22 4.02909e-07 1.88115e-36 4.02909e-07 176.224
870.47 283.309 0 0 0 1.98302e-22 3.08594e-07 5.73444e-37 3.08594e-07 283.309
871.76 346.817 0 0 0 1.32886e-22 2.36022e-07 1.73492e-37 2.36022e-07 346.817
873.06 260.58 0 0 0 8.86485e-23 1.79883e-07 5.16087e-38 1.79883e-07 260.58
874.35 276.586 0 0 0 5.92393e-23 1.37189e-07 1.53789e-38 1.37189e-07 276.586
875.64 347.264 0 0 0 3.95316e-23 1.04479e-07 4.5483e-39 1.04479e-07 347.264
876.93 452.583 0 0 0 2.63435e-23 7.94559e-08 1.33504e-39 7.94559e-08 452.583
878.22 249.256 0 0 0 1.75307e-23 6.034e-08 3.88917e-40 6.034e-08 249.256
879.51 316.042 0 0 0 1.16499e-23 4.57582e-08 1.12446e-40 4.57582e-08 316.042
880.8 357.228 0 0 0 7.73104e-24 3.46511e-08 3.22662e-41 3.46511e-08 357.228
882.1 299.717 0 0 0 5.10696e-24 2.6146e-08 9.0998e-42 2.6146e-08 299.717
883.39 380.102 0 0 0 3.37961e-24 1.97431e-08 2.57189e-42 1.97431e-08 380.102
884.68 337.574 0 0 0 2.23339e-24 1.48871e-08 7.2143e-43 1.48871e-08 337.574
885.97 178.822 0 0 0 1.47387e-24 1.12096e-08 2.00843e-43 1.12096e-08 178.822
887.25 260.139 0 0 0 9.74444e-25 8.44722e-09 5.60507e-44 8.44722e-09 260.139
888.54 293.993 0 0 0 6.4128e-25 6.34257e-09 1.53712e-44 6.34257e-09 293.993
889.83 226.536 0 0 0 4.21438e-25 4.75554e-09 4.18367e-45 4.75554e-09 226.536
891.12 391.785 0 0 0 2.76577e-25 3.56057e-09 1.13013e-45 3.56057e-09 391.785
892.41 218.381 0 0 0 1.81256e-25 2.66209e-09 3.02982e-46 2.66209e-09 218.381
893.7 291.472 0 0 0 1.18622e-25 1.98751e-09 8.06169e-47 1.98751e-09 291.472
894.98 218.706 0 0 0 7.77804e-26 1.48515e-09 2.15106e-47 1.48515e-09 218.706
896.27 136.71 0 0 0 5.07621e-26 1.10569e-09 5.63805e-48 1.10569e-09 136.71
897.56 251.395 0 0 0 3.3083e-26 8.22007e-10 1.46665e-48 8.22007e-10 251.395
898.85 243.804 0 0 0 2.1531e-26 6.10243e-10 3.78654e-49 6.10243e-10 243.804
899.7 256.456 0 0 0 1.62114e-26 5.01096e-10 1.54509e-49 5.01096e-10 256.456