File: assets/data/P12/uvvis/air.txt
SpectraSuite Data File
++++++++++++++++++++++++++++++++++++
Date: Tue Mar 29 10:28:00 CEST 2016
User: IPCE
Dark Spectrum Present: Yes
Reference Spectrum Present: Yes
Number of Sampled Component Spectra: 1
Spectrometers: HR+C0708
Integration Time (usec): 1000 (HR+C0708)
Spectra Averaged: 10 (HR+C0708)
Boxcar Smoothing: 0 (HR+C0708)
Correct for Electrical Dark: No (HR+C0708)
Strobe/Lamp Enabled: No (HR+C0708)
Correct for Detector Non-linearity: No (HR+C0708)
Correct for Stray Light: No (HR+C0708)
Number of Pixels in Processed Spectrum: 2048
>>>>>Begin Processed Spectral Data<<<<<
188.76	0.209
189.70	0.609
190.64	0.171
191.59	0.443
192.53	0.442
193.48	0.477
194.42	-0.070
195.37	0.177
196.31	0.180
197.26	0.245
198.20	0.021
199.14	0.636
200.09	0.213
201.03	0.108
201.97	0.046
202.92	0.102
203.86	0.104
204.80	0.201
205.75	0.131
206.69	0.066
207.63	0.103
208.58	-0.010
209.52	0.116
210.46	0.209
211.41	0.072
212.35	0.075
213.29	0.040
214.23	0.068
215.18	0.137
216.12	0.060
217.06	0.067
218.00	0.052
218.94	0.028
219.89	0.077
220.83	0.056
221.77	0.085
222.71	0.094
223.65	0.080
224.59	0.065
225.54	0.045
226.48	0.050
227.42	0.054
228.36	0.045
229.30	0.050
230.24	0.049
231.18	0.043
232.12	0.040
233.06	0.036
234.00	0.041
234.94	0.039
235.88	0.037
236.82	0.044
237.76	0.036
238.70	0.039
239.64	0.035
240.58	0.035
241.52	0.033
242.46	0.033
243.40	0.033
244.34	0.032
245.28	0.035
246.22	0.034
247.16	0.035
248.10	0.036
249.04	0.033
249.98	0.032
250.92	0.033
251.85	0.035
252.79	0.030
253.73	0.035
254.67	0.032
255.61	0.033
256.55	0.033
257.49	0.031
258.42	0.032
259.36	0.033
260.30	0.031
261.24	0.032
262.17	0.031
263.11	0.030
264.05	0.030
264.99	0.031
265.92	0.030
266.86	0.031
267.80	0.029
268.74	0.031
269.67	0.029
270.61	0.029
271.55	0.030
272.48	0.027
273.42	0.029
274.36	0.028
275.29	0.028
276.23	0.029
277.16	0.028
278.10	0.028
279.04	0.025
279.97	0.027
280.91	0.027
281.84	0.028
282.78	0.026
283.72	0.027
284.65	0.026
285.59	0.028
286.52	0.026
287.46	0.025
288.39	0.025
289.33	0.024
290.26	0.027
291.20	0.026
292.13	0.027
293.07	0.026
294.00	0.025
294.93	0.026
295.87	0.026
296.80	0.024
297.74	0.026
298.67	0.025
299.60	0.026
300.54	0.024
301.47	0.025
302.41	0.022
303.34	0.025
304.27	0.025
305.21	0.026
306.14	0.025
307.07	0.024
308.01	0.025
308.94	0.025
309.87	0.023
310.80	0.025
311.74	0.024
312.67	0.023
313.60	0.024
314.53	0.023
315.47	0.024
316.40	0.022
317.33	0.022
318.26	0.024
319.19	0.023
320.13	0.022
321.06	0.021
321.99	0.023
322.92	0.021
323.85	0.022
324.78	0.022
325.71	0.023
326.64	0.023
327.58	0.021
328.51	0.021
329.44	0.024
330.37	0.020
331.30	0.020
332.23	0.024
333.16	0.020
334.09	0.022
335.02	0.021
335.95	0.022
336.88	0.022
337.81	0.022
338.74	0.020
339.67	0.020
340.60	0.021
341.53	0.018
342.46	0.021
343.39	0.021
344.32	0.022
345.25	0.018
346.17	0.019
347.10	0.023
348.03	0.021
348.96	0.021
349.89	0.020
350.82	0.022
351.75	0.026
352.67	0.023
353.60	0.018
354.53	0.024
355.46	0.020
356.39	0.021
357.31	0.023
358.24	0.022
359.17	0.021
360.10	0.019
361.03	0.021
361.95	0.021
362.88	0.019
363.81	0.021
364.73	0.021
365.66	0.022
366.59	0.022
367.51	0.021
368.44	0.019
369.37	0.021
370.29	0.020
371.22	0.020
372.15	0.020
373.07	0.018
374.00	0.019
374.92	0.019
375.85	0.019
376.78	0.019
377.70	0.018
378.63	0.020
379.55	0.020
380.48	0.021
381.40	0.019
382.33	0.020
383.25	0.021
384.18	0.021
385.10	0.017
386.03	0.018
386.95	0.019
387.88	0.020
388.80	0.021
389.72	0.020
390.65	0.018
391.57	0.019
392.50	0.020
393.42	0.020
394.34	0.018
395.27	0.019
396.19	0.018
397.12	0.017
398.04	0.018
398.96	0.017
399.89	0.019
400.81	0.019
401.73	0.020
402.65	0.019
403.58	0.018
404.50	0.017
405.42	0.016
406.34	0.019
407.27	0.018
408.19	0.019
409.11	0.019
410.03	0.019
410.96	0.018
411.88	0.018
412.80	0.020
413.72	0.019
414.64	0.018
415.56	0.020
416.48	0.020
417.41	0.016
418.33	0.019
419.25	0.017
420.17	0.016
421.09	0.019
422.01	0.016
422.93	0.019
423.85	0.019
424.77	0.017
425.69	0.018
426.61	0.017
427.53	0.016
428.45	0.016
429.37	0.019
430.29	0.018
431.21	0.019
432.13	0.017
433.05	0.016
433.97	0.018
434.89	0.020
435.81	0.017
436.73	0.020
437.65	0.020
438.57	0.015
439.48	0.016
440.40	0.017
441.32	0.016
442.24	0.018
443.16	0.014
444.08	0.017
444.99	0.018
445.91	0.017
446.83	0.016
447.75	0.018
448.67	0.017
449.58	0.018
450.50	0.016
451.42	0.018
452.34	0.015
453.25	0.016
454.17	0.014
455.09	0.017
456.00	0.016
456.92	0.016
457.84	0.017
458.75	0.015
459.67	0.017
460.59	0.018
461.50	0.017
462.42	0.016
463.33	0.014
464.25	0.016
465.17	0.016
466.08	0.015
467.00	0.017
467.91	0.015
468.83	0.015
469.74	0.017
470.66	0.014
471.57	0.016
472.49	0.017
473.40	0.017
474.32	0.015
475.23	0.017
476.15	0.016
477.06	0.015
477.98	0.017
478.89	0.016
479.80	0.015
480.72	0.014
481.63	0.017
482.55	0.017
483.46	0.018
484.37	0.017
485.29	0.015
486.20	0.016
487.11	0.014
488.03	0.015
488.94	0.016
489.85	0.018
490.77	0.016
491.68	0.016
492.59	0.016
493.50	0.014
494.42	0.015
495.33	0.015
496.24	0.015
497.15	0.018
498.06	0.014
498.98	0.014
499.89	0.015
500.80	0.014
501.71	0.016
502.62	0.015
503.53	0.013
504.44	0.014
505.36	0.016
506.27	0.014
507.18	0.016
508.09	0.013
509.00	0.014
509.91	0.015
510.82	0.016
511.73	0.015
512.64	0.014
513.55	0.016
514.46	0.014
515.37	0.017
516.28	0.015
517.19	0.018
518.10	0.016
519.01	0.015
519.92	0.015
520.83	0.016
521.74	0.015
522.65	0.014
523.55	0.015
524.46	0.016
525.37	0.016
526.28	0.016
527.19	0.016
528.10	0.014
529.01	0.017
529.91	0.013
530.82	0.014
531.73	0.015
532.64	0.016
533.54	0.015
534.45	0.015
535.36	0.015
536.27	0.015
537.17	0.013
538.08	0.017
538.99	0.016
539.90	0.013
540.80	0.015
541.71	0.016
542.62	0.016
543.52	0.015
544.43	0.015
545.34	0.016
546.24	0.015
547.15	0.016
548.05	0.014
548.96	0.014
549.86	0.016
550.77	0.015
551.68	0.016
552.58	0.014
553.49	0.016
554.39	0.015
555.30	0.015
556.20	0.015
557.11	0.014
558.01	0.013
558.92	0.013
559.82	0.013
560.72	0.014
561.63	0.013
562.53	0.014
563.44	0.013
564.34	0.014
565.25	0.014
566.15	0.016
567.05	0.013
567.96	0.015
568.86	0.015
569.76	0.015
570.67	0.015
571.57	0.014
572.47	0.014
573.37	0.015
574.28	0.013
575.18	0.013
576.08	0.014
576.98	0.013
577.89	0.014
578.79	0.014
579.69	0.014
580.59	0.014
581.49	0.012
582.40	0.013
583.30	0.013
584.20	0.013
585.10	0.013
586.00	0.014
586.90	0.013
587.80	0.014
588.71	0.014
589.61	0.013
590.51	0.013
591.41	0.014
592.31	0.012
593.21	0.013
594.11	0.012
595.01	0.015
595.91	0.013
596.81	0.011
597.71	0.015
598.61	0.015
599.51	0.013
600.41	0.014
601.31	0.013
602.21	0.013
603.10	0.014
604.00	0.014
604.90	0.013
605.80	0.012
606.70	0.014
607.60	0.013
608.50	0.012
609.39	0.012
610.29	0.013
611.19	0.014
612.09	0.012
612.99	0.014
613.88	0.013
614.78	0.013
615.68	0.012
616.58	0.013
617.47	0.012
618.37	0.013
619.27	0.014
620.17	0.014
621.06	0.013
621.96	0.013
622.86	0.012
623.75	0.014
624.65	0.012
625.54	0.013
626.44	0.011
627.34	0.012
628.23	0.012
629.13	0.013
630.02	0.012
630.92	0.014
631.81	0.013
632.71	0.015
633.61	0.013
634.50	0.013
635.40	0.013
636.29	0.012
637.18	0.012
638.08	0.012
638.97	0.012
639.87	0.013
640.76	0.013
641.66	0.012
642.55	0.012
643.44	0.012
644.34	0.013
645.23	0.012
646.13	0.013
647.02	0.012
647.91	0.012
648.81	0.011
649.70	0.013
650.59	0.013
651.48	0.013
652.38	0.014
653.27	0.012
654.16	0.012
655.06	0.013
655.95	0.010
656.84	0.013
657.73	0.014
658.62	0.013
659.52	0.012
660.41	0.013
661.30	0.013
662.19	0.012
663.08	0.014
663.97	0.013
664.86	0.013
665.75	0.013
666.65	0.013
667.54	0.014
668.43	0.013
669.32	0.014
670.21	0.013
671.10	0.012
671.99	0.011
672.88	0.015
673.77	0.012
674.66	0.011
675.55	0.011
676.44	0.012
677.33	0.013
678.22	0.012
679.11	0.012
679.99	0.009
680.88	0.010
681.77	0.013
682.66	0.012
683.55	0.012
684.44	0.013
685.33	0.011
686.21	0.012
687.10	0.012
687.99	0.013
688.88	0.013
689.77	0.014
690.65	0.012
691.54	0.012
692.43	0.014
693.32	0.014
694.20	0.010
695.09	0.012
695.98	0.012
696.86	0.013
697.75	0.012
698.64	0.014
699.52	0.013
700.41	0.013
701.30	0.012
702.18	0.013
703.07	0.010
703.96	0.013
704.84	0.011
705.73	0.012
706.61	0.011
707.50	0.013
708.38	0.011
709.27	0.013
710.15	0.012
711.04	0.013
711.92	0.014
712.81	0.010
713.69	0.011
714.58	0.011
715.46	0.014
716.35	0.013
717.23	0.015
718.11	0.010
719.00	0.014
719.88	0.012
720.76	0.013
721.65	0.012
722.53	0.014
723.41	0.010
724.30	0.012
725.18	0.012
726.06	0.012
726.95	0.010
727.83	0.011
728.71	0.012
729.59	0.011
730.48	0.011
731.36	0.011
732.24	0.012
733.12	0.011
734.00	0.011
734.89	0.011
735.77	0.011
736.65	0.011
737.53	0.010
738.41	0.010
739.29	0.010
740.17	0.009
741.05	0.009
741.93	0.009
742.81	0.010
743.70	0.010
744.58	0.009
745.46	0.012
746.34	0.010
747.22	0.011
748.10	0.010
748.98	0.008
749.86	0.012
750.73	0.012
751.61	0.011
752.49	0.012
753.37	0.011
754.25	0.011
755.13	0.011
756.01	0.009
756.89	0.011
757.77	0.013
758.64	0.010
759.52	0.012
760.40	0.011
761.28	0.008
762.16	0.011
763.03	0.009
763.91	0.010
764.79	0.008
765.67	0.005
766.54	0.010
767.42	0.006
768.30	0.007
769.17	0.010
770.05	0.007
770.93	0.007
771.80	0.008
772.68	0.011
773.56	0.007
774.43	0.007
775.31	0.012
776.19	0.008
777.06	0.005
777.94	0.008
778.81	0.010
779.69	0.005
780.56	0.008
781.44	0.009
782.31	0.011
783.19	0.007
784.06	0.009
784.94	0.008
785.81	0.009
786.69	0.008
787.56	0.004
788.43	0.008
789.31	0.008
790.18	0.010
791.06	0.006
791.93	0.007
792.80	0.006
793.68	0.005
794.55	0.010
795.42	0.008
796.30	0.007
797.17	0.006
798.04	0.007
798.91	0.009
799.79	0.008
800.66	0.011
801.53	0.003
802.40	0.008
803.28	0.006
804.15	0.006
805.02	0.011
805.89	0.009
806.76	0.008
807.63	0.006
808.51	0.011
809.38	0.008
810.25	0.006
811.12	0.006
811.99	0.006
812.86	0.008
813.73	0.008
814.60	0.008
815.47	0.006
816.34	0.006
817.21	0.007
818.08	0.006
818.95	0.008
819.82	0.007
820.69	0.006
821.56	0.007
822.43	0.005
823.30	0.010
824.17	0.008
825.04	0.006
825.90	0.008
826.77	0.005
827.64	0.008
828.51	0.001
829.38	0.005
830.25	0.004
831.11	0.007
831.98	0.008
832.85	0.008
833.72	0.007
834.58	0.004
835.45	0.008
836.32	0.008
837.19	0.007
838.05	0.005
838.92	0.010
839.79	0.004
840.65	0.008
841.52	0.008
842.39	0.008
843.25	0.005
844.12	0.005
844.98	0.007
845.85	0.003
846.71	0.009
847.58	0.010
848.45	0.010
849.31	0.004
850.18	0.010
851.04	0.006
851.91	0.007
852.77	0.008
853.64	0.006
854.50	0.010
855.36	0.008
856.23	0.007
857.09	0.007
857.96	0.006
858.82	0.007
859.68	0.004
860.55	0.008
861.41	0.005
862.27	0.004
863.14	0.011
864.00	0.007
864.86	0.011
865.73	0.006
866.59	0.006
867.45	0.009
868.31	0.001
869.18	0.004
870.04	0.002
870.90	0.004
871.76	0.010
872.62	0.013
873.49	0.005
874.35	0.005
875.21	0.005
876.07	0.004
876.93	0.003
877.79	0.002
878.65	0.003
879.51	0.007
880.37	0.005
881.23	0.005
882.10	0.008
882.96	0.008
883.82	0.006
884.68	0.007
885.54	0.003
886.39	0.009
887.25	0.009
888.11	0.003
888.97	0.011
889.83	0.008
890.69	0.013
891.55	0.010
892.41	0.007
893.27	0.006
894.13	0.009
894.98	0.013
895.84	0.002
896.70	0.004
897.56	0.006
898.42	0.006
899.27	0.003
900.13	0.005
900.99	0.003
901.85	0.011
902.70	0.008
903.56	0.007
904.42	0.008
905.27	0.005
906.13	0.007
906.99	0.004
907.84	0.004
908.70	0.007
909.56	0.003
910.41	0.006
911.27	0.006
912.12	0.007
912.98	0.004
913.84	0.005
914.69	0.010
915.55	0.004
916.40	0.007
917.26	0.006
918.11	0.003
918.97	0.005
919.82	0.007
920.67	0.004
921.53	0.005
922.38	0.005
923.24	0.005
924.09	0.008
924.94	0.002
925.80	0.004
926.65	0.004
927.50	0.006
928.36	0.008
929.21	0.005
930.06	0.008
930.92	0.007
931.77	0.002
932.62	0.008
933.47	0.008
934.33	0.007
935.18	0.009
936.03	0.010
936.88	0.007
937.73	0.008
938.59	0.012
939.44	0.011
940.29	0.012
941.14	0.002
941.99	0.006
942.84	0.007
943.69	0.005
944.54	0.008
945.39	0.012
946.24	0.011
947.09	0.009
947.94	0.007
948.79	0.009
949.64	0.005
950.49	0.004
951.34	0.002
952.19	0.001
953.04	0.008
953.89	0.009
954.74	0.012
955.59	0.008
956.44	0.011
957.29	0.011
958.14	0.005
958.98	0.005
959.83	0.004
960.68	0.002
961.53	0.003
962.38	0.008
963.22	0.001
964.07	0.004
964.92	0.007
965.77	0.011
966.61	0.006
967.46	0.010
968.31	0.005
969.15	0.010
970.00	0.005
970.85	0.011
971.69	0.004
972.54	0.003
973.39	0.007
974.23	0.007
975.08	0.006
975.92	0.005
976.77	0.009
977.61	0.005
978.46	0.012
979.30	0.005
980.15	0.012
980.99	0.011
981.84	0.012
982.68	0.010
983.53	0.014
984.37	0.015
985.22	0.010
986.06	0.007
986.90	0.008
987.75	0.010
988.59	0.008
989.43	0.010
990.28	0.008
991.12	0.009
991.96	0.010
992.81	0.010
993.65	0.005
994.49	0.002
995.34	0.005
996.18	0.012
997.02	0.011
997.86	0.007
998.70	0.012
999.55	0.016
1000.39	0.005
1001.23	0.007
1002.07	0.009
1002.91	0.011
1003.75	0.010
1004.59	0.012
1005.43	0.017
1006.28	0.013
1007.12	0.012
1007.96	0.010
1008.80	0.010
1009.64	0.008
1010.48	0.009
1011.32	0.013
1012.16	0.007
1013.00	0.013
1013.84	0.016
1014.67	0.010
1015.51	0.011
1016.35	0.006
1017.19	0.006
1018.03	0.017
1018.87	0.005
1019.71	0.010
1020.55	0.023
1021.38	0.013
1022.22	0.003
1023.06	0.009
1023.90	0.007
1024.74	0.008
1025.57	0.018
1026.41	0.011
1027.25	0.018
1028.08	0.009
1028.92	0.014
1029.76	-0.001
1030.60	0.011
1031.43	0.014
1032.27	0.014
1033.10	0.015
1033.94	0.026
1034.78	0.024
1035.61	0.015
1036.45	0.010
1037.28	0.019
1038.12	0.021
1038.95	0.015
1039.79	0.024
1040.62	0.034
1041.46	0.028
1042.29	0.034
1043.13	0.030
1043.96	0.026
1044.80	0.014
1045.63	0.019
1046.47	0.031
1047.30	0.017
1048.13	-0.006
1048.97	0.031
1049.80	0.009
1050.63	0.025
1051.47	0.020
1052.30	0.035
1053.13	0.011
1053.97	0.021
1054.80	0.042
1055.63	0.017
1056.46	0.064
1057.29	0.044
1058.13	0.072
1058.96	0.033
1059.79	0.026
1060.62	0.025
1061.45	0.057
1062.28	0.032
1063.12	0.055
1063.95	0.083
1064.78	0.003
1065.61	0.001
1066.44	0.044
1067.27	0.042
1068.10	0.079
1068.93	0.044
1069.76	0.091
1070.59	0.100
1071.42	0.048
1072.25	0.088
1073.08	0.104
1073.91	0.180
1074.74	0.118
1075.57	0.062
1076.40	0.051
1077.22	0.098
1078.05	0.189
1078.88	0.140
1079.71	0.459
1080.54	0.024
1081.37	0.346
1082.19	0.109
1083.02	0.460
1083.85	-0.048
1084.68	0.279
1085.50	0.247
1086.33	0.294
1087.16	0.535
1087.98	0.308
1088.81	0.198
1089.64	0.246
1090.46	0.171
1091.29	0.130
1092.12	0.753
1092.94	0.299
1093.77	0.454
1094.59	0.128
1095.42	0.257
1096.25	0.040
1097.07	0.077
1097.90	0.347
1098.72	0.079
1099.13	0.338
>>>>>End Processed Spectral Data<<<<<