File: assets/data/P12/uvvis/cuvette-4sides-clear.txt
SpectraSuite Data File
++++++++++++++++++++++++++++++++++++
Date: Sun Apr 24 18:33:24 CEST 2016
User: spectrasuite
Dark Spectrum Present: Yes
Reference Spectrum Present: Yes
Number of Sampled Component Spectra: 1
Spectrometers: HR+C0708
Integration Time (usec): 1000 (HR+C0708)
Spectra Averaged: 10 (HR+C0708)
Boxcar Smoothing: 0 (HR+C0708)
Correct for Electrical Dark: No (HR+C0708)
Strobe/Lamp Enabled: No (HR+C0708)
Correct for Detector Non-linearity: No (HR+C0708)
Correct for Stray Light: No (HR+C0708)
Number of Pixels in Processed Spectrum: 2048
>>>>>Begin Processed Spectral Data<<<<<
188.76	0.369
189.70	-0.032
190.64	-0.000
191.59	-0.000
192.53	0.271
193.48	0.327
194.42	-0.855
195.37	-0.000
196.31	0.717
197.26	0.210
198.20	0.613
199.14	0.073
200.09	0.361
201.03	0.231
201.97	0.272
202.92	0.086
203.86	0.220
204.80	0.195
205.75	0.346
206.69	0.272
207.63	0.241
208.58	0.252
209.52	0.100
210.46	0.306
211.41	0.145
212.35	0.422
213.29	0.125
214.23	0.176
215.18	0.297
216.12	0.110
217.06	0.265
218.00	0.241
218.94	0.301
219.89	0.292
220.83	0.336
221.77	0.257
222.71	0.382
223.65	0.333
224.59	0.432
225.54	0.593
226.48	0.642
227.42	0.656
228.36	0.811
229.30	0.955
230.24	0.961
231.18	1.084
232.12	1.257
233.06	1.427
234.00	1.378
234.94	1.473
235.88	1.563
236.82	1.599
237.76	1.700
238.70	1.739
239.64	1.856
240.58	1.880
241.52	1.928
242.46	2.035
243.40	2.034
244.34	2.066
245.28	1.976
246.22	2.087
247.16	2.082
248.10	2.042
249.04	2.088
249.98	2.035
250.92	1.958
251.85	1.837
252.79	1.626
253.73	1.395
254.67	1.221
255.61	1.075
256.55	0.974
257.49	0.894
258.42	0.824
259.36	0.765
260.30	0.717
261.24	0.681
262.17	0.640
263.11	0.610
264.05	0.584
264.99	0.555
265.92	0.530
266.86	0.508
267.80	0.483
268.74	0.463
269.67	0.445
270.61	0.425
271.55	0.406
272.48	0.389
273.42	0.375
274.36	0.359
275.29	0.343
276.23	0.330
277.16	0.317
278.10	0.307
279.04	0.295
279.97	0.285
280.91	0.278
281.84	0.267
282.78	0.261
283.72	0.255
284.65	0.246
285.59	0.240
286.52	0.233
287.46	0.226
288.39	0.221
289.33	0.216
290.26	0.212
291.20	0.204
292.13	0.206
293.07	0.198
294.00	0.194
294.93	0.195
295.87	0.189
296.80	0.185
297.74	0.182
298.67	0.180
299.60	0.177
300.54	0.174
301.47	0.172
302.41	0.168
303.34	0.169
304.27	0.167
305.21	0.164
306.14	0.160
307.07	0.158
308.01	0.153
308.94	0.153
309.87	0.152
310.80	0.147
311.74	0.144
312.67	0.144
313.60	0.139
314.53	0.139
315.47	0.136
316.40	0.134
317.33	0.131
318.26	0.129
319.19	0.127
320.13	0.123
321.06	0.122
321.99	0.121
322.92	0.118
323.85	0.118
324.78	0.115
325.71	0.112
326.64	0.113
327.58	0.112
328.51	0.107
329.44	0.106
330.37	0.104
331.30	0.103
332.23	0.105
333.16	0.102
334.09	0.099
335.02	0.103
335.95	0.103
336.88	0.098
337.81	0.101
338.74	0.099
339.67	0.097
340.60	0.096
341.53	0.096
342.46	0.098
343.39	0.096
344.32	0.093
345.25	0.093
346.17	0.090
347.10	0.095
348.03	0.093
348.96	0.091
349.89	0.092
350.82	0.091
351.75	0.090
352.67	0.093
353.60	0.091
354.53	0.092
355.46	0.086
356.39	0.089
357.31	0.087
358.24	0.085
359.17	0.087
360.10	0.087
361.03	0.086
361.95	0.088
362.88	0.087
363.81	0.083
364.73	0.087
365.66	0.083
366.59	0.085
367.51	0.085
368.44	0.084
369.37	0.083
370.29	0.084
371.22	0.083
372.15	0.083
373.07	0.084
374.00	0.084
374.92	0.084
375.85	0.082
376.78	0.085
377.70	0.081
378.63	0.080
379.55	0.083
380.48	0.082
381.40	0.080
382.33	0.081
383.25	0.082
384.18	0.082
385.10	0.080
386.03	0.083
386.95	0.083
387.88	0.079
388.80	0.080
389.72	0.078
390.65	0.077
391.57	0.079
392.50	0.081
393.42	0.077
394.34	0.079
395.27	0.080
396.19	0.081
397.12	0.081
398.04	0.078
398.96	0.077
399.89	0.080
400.81	0.077
401.73	0.078
402.65	0.077
403.58	0.080
404.50	0.078
405.42	0.077
406.34	0.078
407.27	0.078
408.19	0.076
409.11	0.077
410.03	0.078
410.96	0.079
411.88	0.079
412.80	0.076
413.72	0.077
414.64	0.078
415.56	0.077
416.48	0.076
417.41	0.075
418.33	0.078
419.25	0.076
420.17	0.075
421.09	0.074
422.01	0.074
422.93	0.076
423.85	0.074
424.77	0.073
425.69	0.075
426.61	0.076
427.53	0.074
428.45	0.076
429.37	0.073
430.29	0.076
431.21	0.074
432.13	0.074
433.05	0.077
433.97	0.072
434.89	0.074
435.81	0.073
436.73	0.073
437.65	0.073
438.57	0.072
439.48	0.072
440.40	0.072
441.32	0.071
442.24	0.070
443.16	0.072
444.08	0.073
444.99	0.069
445.91	0.072
446.83	0.074
447.75	0.071
448.67	0.071
449.58	0.073
450.50	0.070
451.42	0.070
452.34	0.069
453.25	0.072
454.17	0.070
455.09	0.070
456.00	0.072
456.92	0.070
457.84	0.072
458.75	0.072
459.67	0.071
460.59	0.072
461.50	0.070
462.42	0.072
463.33	0.071
464.25	0.071
465.17	0.070
466.08	0.071
467.00	0.069
467.91	0.072
468.83	0.068
469.74	0.066
470.66	0.071
471.57	0.070
472.49	0.070
473.40	0.072
474.32	0.072
475.23	0.072
476.15	0.071
477.06	0.069
477.98	0.068
478.89	0.072
479.80	0.068
480.72	0.070
481.63	0.071
482.55	0.069
483.46	0.070
484.37	0.067
485.29	0.069
486.20	0.069
487.11	0.070
488.03	0.070
488.94	0.070
489.85	0.069
490.77	0.067
491.68	0.069
492.59	0.070
493.50	0.069
494.42	0.070
495.33	0.069
496.24	0.070
497.15	0.068
498.06	0.068
498.98	0.070
499.89	0.069
500.80	0.066
501.71	0.069
502.62	0.068
503.53	0.069
504.44	0.069
505.36	0.068
506.27	0.068
507.18	0.069
508.09	0.067
509.00	0.069
509.91	0.067
510.82	0.070
511.73	0.069
512.64	0.068
513.55	0.069
514.46	0.068
515.37	0.070
516.28	0.067
517.19	0.069
518.10	0.069
519.01	0.068
519.92	0.069
520.83	0.070
521.74	0.066
522.65	0.065
523.55	0.067
524.46	0.069
525.37	0.067
526.28	0.066
527.19	0.065
528.10	0.069
529.01	0.069
529.91	0.069
530.82	0.069
531.73	0.067
532.64	0.068
533.54	0.068
534.45	0.067
535.36	0.068
536.27	0.068
537.17	0.069
538.08	0.066
538.99	0.068
539.90	0.069
540.80	0.069
541.71	0.067
542.62	0.067
543.52	0.066
544.43	0.066
545.34	0.068
546.24	0.066
547.15	0.068
548.05	0.066
548.96	0.065
549.86	0.066
550.77	0.066
551.68	0.068
552.58	0.067
553.49	0.064
554.39	0.064
555.30	0.068
556.20	0.065
557.11	0.066
558.01	0.067
558.92	0.065
559.82	0.066
560.72	0.066
561.63	0.066
562.53	0.065
563.44	0.065
564.34	0.066
565.25	0.065
566.15	0.065
567.05	0.064
567.96	0.064
568.86	0.065
569.76	0.066
570.67	0.065
571.57	0.064
572.47	0.066
573.37	0.068
574.28	0.065
575.18	0.065
576.08	0.066
576.98	0.065
577.89	0.066
578.79	0.065
579.69	0.065
580.59	0.065
581.49	0.064
582.40	0.062
583.30	0.065
584.20	0.065
585.10	0.065
586.00	0.063
586.90	0.063
587.80	0.065
588.71	0.065
589.61	0.062
590.51	0.064
591.41	0.065
592.31	0.063
593.21	0.065
594.11	0.063
595.01	0.063
595.91	0.065
596.81	0.064
597.71	0.065
598.61	0.062
599.51	0.064
600.41	0.063
601.31	0.062
602.21	0.062
603.10	0.062
604.00	0.065
604.90	0.063
605.80	0.064
606.70	0.064
607.60	0.063
608.50	0.063
609.39	0.063
610.29	0.065
611.19	0.063
612.09	0.063
612.99	0.064
613.88	0.066
614.78	0.061
615.68	0.063
616.58	0.063
617.47	0.062
618.37	0.064
619.27	0.063
620.17	0.063
621.06	0.065
621.96	0.061
622.86	0.064
623.75	0.064
624.65	0.063
625.54	0.064
626.44	0.063
627.34	0.063
628.23	0.064
629.13	0.064
630.02	0.063
630.92	0.063
631.81	0.062
632.71	0.063
633.61	0.063
634.50	0.063
635.40	0.063
636.29	0.064
637.18	0.063
638.08	0.063
638.97	0.064
639.87	0.063
640.76	0.063
641.66	0.063
642.55	0.064
643.44	0.063
644.34	0.064
645.23	0.064
646.13	0.064
647.02	0.063
647.91	0.061
648.81	0.062
649.70	0.063
650.59	0.064
651.48	0.063
652.38	0.064
653.27	0.064
654.16	0.062
655.06	0.064
655.95	0.063
656.84	0.061
657.73	0.063
658.62	0.064
659.52	0.062
660.41	0.061
661.30	0.062
662.19	0.065
663.08	0.063
663.97	0.064
664.86	0.061
665.75	0.063
666.65	0.064
667.54	0.062
668.43	0.063
669.32	0.063
670.21	0.065
671.10	0.062
671.99	0.063
672.88	0.064
673.77	0.064
674.66	0.064
675.55	0.063
676.44	0.063
677.33	0.061
678.22	0.065
679.11	0.064
679.99	0.063
680.88	0.062
681.77	0.062
682.66	0.063
683.55	0.064
684.44	0.064
685.33	0.062
686.21	0.063
687.10	0.064
687.99	0.061
688.88	0.064
689.77	0.063
690.65	0.065
691.54	0.063
692.43	0.062
693.32	0.062
694.20	0.064
695.09	0.065
695.98	0.062
696.86	0.062
697.75	0.063
698.64	0.065
699.52	0.063
700.41	0.064
701.30	0.062
702.18	0.063
703.07	0.065
703.96	0.065
704.84	0.063
705.73	0.064
706.61	0.064
707.50	0.064
708.38	0.063
709.27	0.065
710.15	0.064
711.04	0.062
711.92	0.063
712.81	0.064
713.69	0.065
714.58	0.064
715.46	0.064
716.35	0.061
717.23	0.065
718.11	0.061
719.00	0.063
719.88	0.063
720.76	0.064
721.65	0.063
722.53	0.062
723.41	0.066
724.30	0.063
725.18	0.063
726.06	0.062
726.95	0.063
727.83	0.067
728.71	0.064
729.59	0.061
730.48	0.064
731.36	0.064
732.24	0.064
733.12	0.063
734.00	0.064
734.89	0.064
735.77	0.063
736.65	0.065
737.53	0.066
738.41	0.063
739.29	0.066
740.17	0.066
741.05	0.063
741.93	0.063
742.81	0.061
743.70	0.063
744.58	0.066
745.46	0.066
746.34	0.064
747.22	0.065
748.10	0.066
748.98	0.063
749.86	0.065
750.73	0.063
751.61	0.065
752.49	0.065
753.37	0.063
754.25	0.066
755.13	0.065
756.01	0.066
756.89	0.064
757.77	0.063
758.64	0.062
759.52	0.063
760.40	0.063
761.28	0.064
762.16	0.063
763.03	0.063
763.91	0.064
764.79	0.064
765.67	0.062
766.54	0.061
767.42	0.059
768.30	0.062
769.17	0.063
770.05	0.062
770.93	0.063
771.80	0.064
772.68	0.065
773.56	0.060
774.43	0.064
775.31	0.060
776.19	0.061
777.06	0.063
777.94	0.059
778.81	0.061
779.69	0.061
780.56	0.059
781.44	0.062
782.31	0.061
783.19	0.061
784.06	0.063
784.94	0.061
785.81	0.066
786.69	0.067
787.56	0.061
788.43	0.062
789.31	0.062
790.18	0.065
791.06	0.062
791.93	0.064
792.80	0.062
793.68	0.063
794.55	0.062
795.42	0.063
796.30	0.064
797.17	0.067
798.04	0.057
798.91	0.061
799.79	0.063
800.66	0.063
801.53	0.066
802.40	0.060
803.28	0.060
804.15	0.062
805.02	0.061
805.89	0.066
806.76	0.064
807.63	0.063
808.51	0.063
809.38	0.062
810.25	0.060
811.12	0.066
811.99	0.066
812.86	0.062
813.73	0.062
814.60	0.057
815.47	0.063
816.34	0.062
817.21	0.056
818.08	0.063
818.95	0.061
819.82	0.063
820.69	0.062
821.56	0.060
822.43	0.059
823.30	0.064
824.17	0.057
825.04	0.060
825.90	0.057
826.77	0.062
827.64	0.064
828.51	0.059
829.38	0.060
830.25	0.064
831.11	0.063
831.98	0.063
832.85	0.059
833.72	0.058
834.58	0.061
835.45	0.064
836.32	0.062
837.19	0.065
838.05	0.062
838.92	0.061
839.79	0.063
840.65	0.064
841.52	0.059
842.39	0.064
843.25	0.060
844.12	0.065
844.98	0.065
845.85	0.063
846.71	0.060
847.58	0.063
848.45	0.058
849.31	0.062
850.18	0.064
851.04	0.058
851.91	0.062
852.77	0.055
853.64	0.063
854.50	0.063
855.36	0.056
856.23	0.060
857.09	0.063
857.96	0.063
858.82	0.065
859.68	0.062
860.55	0.061
861.41	0.066
862.27	0.061
863.14	0.058
864.00	0.063
864.86	0.061
865.73	0.066
866.59	0.060
867.45	0.063
868.31	0.062
869.18	0.067
870.04	0.060
870.90	0.065
871.76	0.059
872.62	0.063
873.49	0.066
874.35	0.064
875.21	0.061
876.07	0.063
876.93	0.062
877.79	0.062
878.65	0.060
879.51	0.065
880.37	0.065
881.23	0.063
882.10	0.068
882.96	0.060
883.82	0.064
884.68	0.064
885.54	0.059
886.39	0.066
887.25	0.061
888.11	0.062
888.97	0.066
889.83	0.064
890.69	0.063
891.55	0.061
892.41	0.068
893.27	0.070
894.13	0.066
894.98	0.063
895.84	0.068
896.70	0.065
897.56	0.065
898.42	0.068
899.27	0.064
900.13	0.072
900.99	0.067
901.85	0.066
902.70	0.066
903.56	0.064
904.42	0.071
905.27	0.066
906.13	0.068
906.99	0.062
907.84	0.067
908.70	0.064
909.56	0.064
910.41	0.066
911.27	0.069
912.12	0.067
912.98	0.068
913.84	0.068
914.69	0.066
915.55	0.063
916.40	0.060
917.26	0.062
918.11	0.062
918.97	0.066
919.82	0.061
920.67	0.063
921.53	0.063
922.38	0.062
923.24	0.060
924.09	0.062
924.94	0.062
925.80	0.064
926.65	0.062
927.50	0.064
928.36	0.060
929.21	0.062
930.06	0.064
930.92	0.065
931.77	0.059
932.62	0.063
933.47	0.066
934.33	0.065
935.18	0.062
936.03	0.063
936.88	0.062
937.73	0.058
938.59	0.057
939.44	0.055
940.29	0.065
941.14	0.056
941.99	0.058
942.84	0.063
943.69	0.065
944.54	0.061
945.39	0.066
946.24	0.056
947.09	0.057
947.94	0.066
948.79	0.064
949.64	0.060
950.49	0.062
951.34	0.063
952.19	0.065
953.04	0.060
953.89	0.057
954.74	0.055
955.59	0.056
956.44	0.057
957.29	0.058
958.14	0.064
958.98	0.065
959.83	0.061
960.68	0.061
961.53	0.065
962.38	0.054
963.22	0.059
964.07	0.061
964.92	0.058
965.77	0.060
966.61	0.062
967.46	0.061
968.31	0.061
969.15	0.059
970.00	0.056
970.85	0.055
971.69	0.061
972.54	0.066
973.39	0.061
974.23	0.059
975.08	0.067
975.92	0.056
976.77	0.061
977.61	0.057
978.46	0.056
979.30	0.060
980.15	0.063
980.99	0.058
981.84	0.057
982.68	0.063
983.53	0.059
984.37	0.064
985.22	0.061
986.06	0.066
986.90	0.059
987.75	0.064
988.59	0.063
989.43	0.065
990.28	0.060
991.12	0.070
991.96	0.066
992.81	0.064
993.65	0.061
994.49	0.061
995.34	0.061
996.18	0.062
997.02	0.068
997.86	0.068
998.70	0.066
999.55	0.064
1000.39	0.058
1001.23	0.067
1002.07	0.066
1002.91	0.060
1003.75	0.065
1004.59	0.062
1005.43	0.060
1006.28	0.065
1007.12	0.062
1007.96	0.061
1008.80	0.069
1009.64	0.062
1010.48	0.064
1011.32	0.055
1012.16	0.062
1013.00	0.063
1013.84	0.064
1014.67	0.065
1015.51	0.065
1016.35	0.063
1017.19	0.064
1018.03	0.068
1018.87	0.063
1019.71	0.068
1020.55	0.058
1021.38	0.056
1022.22	0.064
1023.06	0.067
1023.90	0.062
1024.74	0.069
1025.57	0.061
1026.41	0.063
1027.25	0.055
1028.08	0.072
1028.92	0.081
1029.76	0.066
1030.60	0.070
1031.43	0.058
1032.27	0.066
1033.10	0.069
1033.94	0.056
1034.78	0.058
1035.61	0.057
1036.45	0.068
1037.28	0.059
1038.12	0.069
1038.95	0.066
1039.79	0.068
1040.62	0.074
1041.46	0.061
1042.29	0.065
1043.13	0.061
1043.96	0.056
1044.80	0.051
1045.63	0.067
1046.47	0.062
1047.30	0.048
1048.13	0.062
1048.97	0.060
1049.80	0.065
1050.63	0.053
1051.47	0.077
1052.30	0.065
1053.13	0.075
1053.97	0.049
1054.80	0.068
1055.63	0.075
1056.46	0.062
1057.29	0.029
1058.13	0.067
1058.96	0.092
1059.79	0.008
1060.62	0.064
1061.45	0.036
1062.28	0.078
1063.12	0.051
1063.95	0.085
1064.78	0.063
1065.61	0.084
1066.44	0.053
1067.27	0.114
1068.10	0.050
1068.93	-0.015
1069.76	0.055
1070.59	-0.019
1071.42	0.066
1072.25	0.043
1073.08	0.081
1073.91	0.116
1074.74	0.029
1075.57	0.051
1076.40	0.052
1077.22	0.025
1078.05	-0.012
1078.88	0.129
1079.71	0.166
1080.54	-0.006
1081.37	0.087
1082.19	0.150
1083.02	0.103
1083.85	-0.106
1084.68	0.185
1085.50	0.080
1086.33	0.033
1087.16	-0.229
1087.98	0.125
1088.81	0.163
1089.64	-0.024
1090.46	0.220
1091.29	-0.119
1092.12	0.068
1092.94	-0.043
1093.77	0.142
1094.59	-0.027
1095.42	-0.022
1096.25	0.209
1097.07	0.042
1097.90	0.115
1098.72	-0.100
1099.13	0.316
>>>>>End Processed Spectral Data<<<<<