File: assets/data/P12/uvvis/cuvette.txt
SpectraSuite Data File
++++++++++++++++++++++++++++++++++++
Date: Tue Mar 29 10:29:44 CEST 2016
User: IPCE
Dark Spectrum Present: Yes
Reference Spectrum Present: Yes
Number of Sampled Component Spectra: 1
Spectrometers: HR+C0708
Integration Time (usec): 1000 (HR+C0708)
Spectra Averaged: 10 (HR+C0708)
Boxcar Smoothing: 0 (HR+C0708)
Correct for Electrical Dark: No (HR+C0708)
Strobe/Lamp Enabled: No (HR+C0708)
Correct for Detector Non-linearity: No (HR+C0708)
Correct for Stray Light: No (HR+C0708)
Number of Pixels in Processed Spectrum: 2048
>>>>>Begin Processed Spectral Data<<<<<
188.76	0.137
189.70	-0.000
190.64	0.348
191.59	0.443
192.53	0.689
193.48	0.111
194.42	0.243
195.37	0.231
196.31	0.620
197.26	0.375
198.20	0.653
199.14	0.199
200.09	0.357
201.03	0.267
201.97	0.239
202.92	0.274
203.86	0.259
204.80	0.334
205.75	0.212
206.69	0.277
207.63	0.240
208.58	0.246
209.52	0.308
210.46	0.331
211.41	0.248
212.35	0.363
213.29	0.306
214.23	0.477
215.18	0.508
216.12	0.349
217.06	0.475
218.00	0.521
218.94	0.521
219.89	0.564
220.83	0.614
221.77	0.709
222.71	0.886
223.65	0.852
224.59	0.944
225.54	1.005
226.48	1.066
227.42	1.180
228.36	1.223
229.30	1.363
230.24	1.392
231.18	1.699
232.12	1.496
233.06	1.604
234.00	1.755
234.94	1.812
235.88	1.830
236.82	1.927
237.76	1.957
238.70	1.916
239.64	1.998
240.58	1.979
241.52	2.085
242.46	2.066
243.40	2.204
244.34	2.203
245.28	2.196
246.22	2.175
247.16	2.253
248.10	2.218
249.04	2.276
249.98	2.186
250.92	2.080
251.85	2.056
252.79	1.976
253.73	1.900
254.67	1.718
255.61	1.627
256.55	1.476
257.49	1.362
258.42	1.265
259.36	1.166
260.30	1.089
261.24	1.026
262.17	0.975
263.11	0.914
264.05	0.865
264.99	0.812
265.92	0.774
266.86	0.732
267.80	0.691
268.74	0.658
269.67	0.623
270.61	0.590
271.55	0.559
272.48	0.531
273.42	0.508
274.36	0.483
275.29	0.460
276.23	0.442
277.16	0.422
278.10	0.406
279.04	0.386
279.97	0.371
280.91	0.358
281.84	0.343
282.78	0.328
283.72	0.318
284.65	0.306
285.59	0.299
286.52	0.287
287.46	0.277
288.39	0.265
289.33	0.254
290.26	0.247
291.20	0.237
292.13	0.235
293.07	0.224
294.00	0.217
294.93	0.209
295.87	0.202
296.80	0.194
297.74	0.188
298.67	0.180
299.60	0.177
300.54	0.168
301.47	0.164
302.41	0.159
303.34	0.154
304.27	0.147
305.21	0.144
306.14	0.141
307.07	0.134
308.01	0.129
308.94	0.128
309.87	0.123
310.80	0.121
311.74	0.117
312.67	0.115
313.60	0.112
314.53	0.108
315.47	0.107
316.40	0.105
317.33	0.104
318.26	0.102
319.19	0.102
320.13	0.098
321.06	0.095
321.99	0.097
322.92	0.092
323.85	0.097
324.78	0.093
325.71	0.092
326.64	0.090
327.58	0.089
328.51	0.088
329.44	0.088
330.37	0.087
331.30	0.083
332.23	0.085
333.16	0.082
334.09	0.082
335.02	0.083
335.95	0.082
336.88	0.083
337.81	0.081
338.74	0.080
339.67	0.079
340.60	0.079
341.53	0.077
342.46	0.078
343.39	0.077
344.32	0.073
345.25	0.076
346.17	0.078
347.10	0.073
348.03	0.073
348.96	0.072
349.89	0.071
350.82	0.073
351.75	0.077
352.67	0.076
353.60	0.072
354.53	0.071
355.46	0.072
356.39	0.071
357.31	0.070
358.24	0.073
359.17	0.071
360.10	0.071
361.03	0.071
361.95	0.071
362.88	0.069
363.81	0.069
364.73	0.066
365.66	0.069
366.59	0.068
367.51	0.070
368.44	0.068
369.37	0.069
370.29	0.066
371.22	0.065
372.15	0.065
373.07	0.066
374.00	0.066
374.92	0.066
375.85	0.066
376.78	0.064
377.70	0.064
378.63	0.065
379.55	0.065
380.48	0.065
381.40	0.065
382.33	0.068
383.25	0.065
384.18	0.068
385.10	0.060
386.03	0.065
386.95	0.063
387.88	0.064
388.80	0.065
389.72	0.064
390.65	0.062
391.57	0.062
392.50	0.063
393.42	0.062
394.34	0.061
395.27	0.063
396.19	0.065
397.12	0.060
398.04	0.061
398.96	0.062
399.89	0.061
400.81	0.061
401.73	0.063
402.65	0.062
403.58	0.063
404.50	0.062
405.42	0.060
406.34	0.065
407.27	0.060
408.19	0.062
409.11	0.061
410.03	0.060
410.96	0.060
411.88	0.061
412.80	0.061
413.72	0.062
414.64	0.061
415.56	0.062
416.48	0.061
417.41	0.060
418.33	0.060
419.25	0.059
420.17	0.059
421.09	0.058
422.01	0.059
422.93	0.057
423.85	0.060
424.77	0.057
425.69	0.060
426.61	0.059
427.53	0.057
428.45	0.058
429.37	0.060
430.29	0.059
431.21	0.058
432.13	0.059
433.05	0.058
433.97	0.059
434.89	0.061
435.81	0.059
436.73	0.060
437.65	0.057
438.57	0.055
439.48	0.055
440.40	0.056
441.32	0.053
442.24	0.056
443.16	0.052
444.08	0.056
444.99	0.056
445.91	0.056
446.83	0.056
447.75	0.058
448.67	0.057
449.58	0.058
450.50	0.057
451.42	0.054
452.34	0.056
453.25	0.054
454.17	0.054
455.09	0.056
456.00	0.054
456.92	0.055
457.84	0.054
458.75	0.054
459.67	0.055
460.59	0.055
461.50	0.054
462.42	0.053
463.33	0.053
464.25	0.053
465.17	0.053
466.08	0.052
467.00	0.053
467.91	0.053
468.83	0.053
469.74	0.055
470.66	0.054
471.57	0.055
472.49	0.052
473.40	0.054
474.32	0.054
475.23	0.054
476.15	0.053
477.06	0.054
477.98	0.053
478.89	0.052
479.80	0.051
480.72	0.051
481.63	0.052
482.55	0.053
483.46	0.055
484.37	0.054
485.29	0.052
486.20	0.051
487.11	0.051
488.03	0.050
488.94	0.049
489.85	0.053
490.77	0.052
491.68	0.051
492.59	0.052
493.50	0.052
494.42	0.050
495.33	0.053
496.24	0.050
497.15	0.052
498.06	0.051
498.98	0.049
499.89	0.049
500.80	0.050
501.71	0.051
502.62	0.050
503.53	0.049
504.44	0.051
505.36	0.052
506.27	0.048
507.18	0.051
508.09	0.048
509.00	0.049
509.91	0.050
510.82	0.052
511.73	0.050
512.64	0.049
513.55	0.051
514.46	0.049
515.37	0.050
516.28	0.052
517.19	0.051
518.10	0.048
519.01	0.050
519.92	0.049
520.83	0.049
521.74	0.049
522.65	0.050
523.55	0.049
524.46	0.052
525.37	0.050
526.28	0.049
527.19	0.049
528.10	0.050
529.01	0.050
529.91	0.046
530.82	0.050
531.73	0.049
532.64	0.049
533.54	0.049
534.45	0.049
535.36	0.048
536.27	0.048
537.17	0.050
538.08	0.051
538.99	0.052
539.90	0.047
540.80	0.049
541.71	0.049
542.62	0.051
543.52	0.048
544.43	0.050
545.34	0.048
546.24	0.048
547.15	0.049
548.05	0.048
548.96	0.046
549.86	0.050
550.77	0.048
551.68	0.048
552.58	0.045
553.49	0.048
554.39	0.047
555.30	0.047
556.20	0.047
557.11	0.045
558.01	0.046
558.92	0.047
559.82	0.046
560.72	0.047
561.63	0.047
562.53	0.047
563.44	0.046
564.34	0.047
565.25	0.047
566.15	0.047
567.05	0.046
567.96	0.048
568.86	0.047
569.76	0.045
570.67	0.047
571.57	0.045
572.47	0.046
573.37	0.045
574.28	0.044
575.18	0.045
576.08	0.046
576.98	0.043
577.89	0.045
578.79	0.044
579.69	0.044
580.59	0.045
581.49	0.043
582.40	0.043
583.30	0.043
584.20	0.044
585.10	0.043
586.00	0.042
586.90	0.043
587.80	0.043
588.71	0.043
589.61	0.042
590.51	0.044
591.41	0.044
592.31	0.044
593.21	0.043
594.11	0.041
595.01	0.044
595.91	0.042
596.81	0.043
597.71	0.043
598.61	0.044
599.51	0.043
600.41	0.043
601.31	0.043
602.21	0.044
603.10	0.044
604.00	0.043
604.90	0.044
605.80	0.042
606.70	0.043
607.60	0.043
608.50	0.042
609.39	0.042
610.29	0.043
611.19	0.043
612.09	0.040
612.99	0.042
613.88	0.042
614.78	0.042
615.68	0.041
616.58	0.041
617.47	0.043
618.37	0.042
619.27	0.043
620.17	0.042
621.06	0.040
621.96	0.042
622.86	0.042
623.75	0.042
624.65	0.041
625.54	0.041
626.44	0.040
627.34	0.041
628.23	0.040
629.13	0.042
630.02	0.040
630.92	0.042
631.81	0.041
632.71	0.043
633.61	0.043
634.50	0.043
635.40	0.041
636.29	0.041
637.18	0.042
638.08	0.041
638.97	0.042
639.87	0.042
640.76	0.041
641.66	0.040
642.55	0.040
643.44	0.042
644.34	0.042
645.23	0.041
646.13	0.041
647.02	0.041
647.91	0.042
648.81	0.040
649.70	0.040
650.59	0.041
651.48	0.042
652.38	0.042
653.27	0.041
654.16	0.040
655.06	0.040
655.95	0.039
656.84	0.038
657.73	0.042
658.62	0.041
659.52	0.043
660.41	0.041
661.30	0.040
662.19	0.041
663.08	0.043
663.97	0.042
664.86	0.042
665.75	0.040
666.65	0.042
667.54	0.042
668.43	0.042
669.32	0.043
670.21	0.041
671.10	0.043
671.99	0.040
672.88	0.043
673.77	0.042
674.66	0.041
675.55	0.043
676.44	0.043
677.33	0.040
678.22	0.042
679.11	0.041
679.99	0.040
680.88	0.041
681.77	0.042
682.66	0.042
683.55	0.042
684.44	0.042
685.33	0.040
686.21	0.043
687.10	0.041
687.99	0.041
688.88	0.042
689.77	0.042
690.65	0.041
691.54	0.041
692.43	0.043
693.32	0.042
694.20	0.040
695.09	0.041
695.98	0.042
696.86	0.043
697.75	0.043
698.64	0.041
699.52	0.045
700.41	0.042
701.30	0.041
702.18	0.043
703.07	0.040
703.96	0.043
704.84	0.041
705.73	0.042
706.61	0.040
707.50	0.042
708.38	0.040
709.27	0.042
710.15	0.042
711.04	0.042
711.92	0.043
712.81	0.039
713.69	0.041
714.58	0.042
715.46	0.044
716.35	0.043
717.23	0.044
718.11	0.041
719.00	0.045
719.88	0.041
720.76	0.043
721.65	0.043
722.53	0.043
723.41	0.042
724.30	0.042
725.18	0.043
726.06	0.042
726.95	0.042
727.83	0.045
728.71	0.044
729.59	0.044
730.48	0.040
731.36	0.042
732.24	0.043
733.12	0.041
734.00	0.042
734.89	0.041
735.77	0.041
736.65	0.046
737.53	0.042
738.41	0.042
739.29	0.041
740.17	0.042
741.05	0.044
741.93	0.043
742.81	0.042
743.70	0.042
744.58	0.041
745.46	0.043
746.34	0.042
747.22	0.040
748.10	0.042
748.98	0.040
749.86	0.043
750.73	0.045
751.61	0.042
752.49	0.044
753.37	0.044
754.25	0.042
755.13	0.040
756.01	0.041
756.89	0.041
757.77	0.044
758.64	0.041
759.52	0.044
760.40	0.043
761.28	0.041
762.16	0.043
763.03	0.043
763.91	0.042
764.79	0.041
765.67	0.040
766.54	0.041
767.42	0.042
768.30	0.042
769.17	0.043
770.05	0.040
770.93	0.043
771.80	0.040
772.68	0.045
773.56	0.038
774.43	0.039
775.31	0.042
776.19	0.042
777.06	0.041
777.94	0.041
778.81	0.044
779.69	0.044
780.56	0.041
781.44	0.042
782.31	0.044
783.19	0.043
784.06	0.042
784.94	0.040
785.81	0.041
786.69	0.042
787.56	0.039
788.43	0.040
789.31	0.039
790.18	0.042
791.06	0.039
791.93	0.041
792.80	0.042
793.68	0.040
794.55	0.042
795.42	0.044
796.30	0.043
797.17	0.043
798.04	0.040
798.91	0.045
799.79	0.041
800.66	0.045
801.53	0.041
802.40	0.042
803.28	0.044
804.15	0.042
805.02	0.046
805.89	0.044
806.76	0.044
807.63	0.041
808.51	0.041
809.38	0.041
810.25	0.040
811.12	0.042
811.99	0.040
812.86	0.042
813.73	0.044
814.60	0.042
815.47	0.041
816.34	0.042
817.21	0.043
818.08	0.042
818.95	0.043
819.82	0.045
820.69	0.043
821.56	0.046
822.43	0.041
823.30	0.043
824.17	0.042
825.04	0.041
825.90	0.047
826.77	0.039
827.64	0.045
828.51	0.039
829.38	0.043
830.25	0.042
831.11	0.042
831.98	0.041
832.85	0.046
833.72	0.042
834.58	0.041
835.45	0.042
836.32	0.043
837.19	0.045
838.05	0.041
838.92	0.041
839.79	0.042
840.65	0.043
841.52	0.046
842.39	0.041
843.25	0.040
844.12	0.041
844.98	0.043
845.85	0.041
846.71	0.045
847.58	0.042
848.45	0.045
849.31	0.041
850.18	0.042
851.04	0.046
851.91	0.043
852.77	0.048
853.64	0.043
854.50	0.050
855.36	0.045
856.23	0.044
857.09	0.042
857.96	0.042
858.82	0.049
859.68	0.044
860.55	0.043
861.41	0.039
862.27	0.040
863.14	0.045
864.00	0.044
864.86	0.042
865.73	0.045
866.59	0.042
867.45	0.046
868.31	0.040
869.18	0.042
870.04	0.038
870.90	0.039
871.76	0.041
872.62	0.050
873.49	0.048
874.35	0.044
875.21	0.044
876.07	0.044
876.93	0.048
877.79	0.043
878.65	0.042
879.51	0.048
880.37	0.048
881.23	0.043
882.10	0.045
882.96	0.050
883.82	0.048
884.68	0.044
885.54	0.045
886.39	0.052
887.25	0.045
888.11	0.048
888.97	0.059
889.83	0.050
890.69	0.053
891.55	0.052
892.41	0.046
893.27	0.052
894.13	0.049
894.98	0.053
895.84	0.044
896.70	0.049
897.56	0.051
898.42	0.051
899.27	0.045
900.13	0.049
900.99	0.049
901.85	0.049
902.70	0.048
903.56	0.050
904.42	0.051
905.27	0.046
906.13	0.047
906.99	0.048
907.84	0.049
908.70	0.051
909.56	0.043
910.41	0.047
911.27	0.048
912.12	0.047
912.98	0.048
913.84	0.043
914.69	0.048
915.55	0.045
916.40	0.044
917.26	0.044
918.11	0.041
918.97	0.046
919.82	0.043
920.67	0.042
921.53	0.044
922.38	0.040
923.24	0.042
924.09	0.044
924.94	0.039
925.80	0.041
926.65	0.040
927.50	0.042
928.36	0.043
929.21	0.041
930.06	0.043
930.92	0.045
931.77	0.041
932.62	0.046
933.47	0.043
934.33	0.042
935.18	0.044
936.03	0.045
936.88	0.044
937.73	0.042
938.59	0.049
939.44	0.048
940.29	0.045
941.14	0.042
941.99	0.046
942.84	0.045
943.69	0.043
944.54	0.038
945.39	0.047
946.24	0.043
947.09	0.040
947.94	0.045
948.79	0.047
949.64	0.042
950.49	0.035
951.34	0.043
952.19	0.038
953.04	0.046
953.89	0.045
954.74	0.047
955.59	0.041
956.44	0.047
957.29	0.046
958.14	0.044
958.98	0.045
959.83	0.040
960.68	0.044
961.53	0.042
962.38	0.048
963.22	0.044
964.07	0.036
964.92	0.043
965.77	0.043
966.61	0.038
967.46	0.043
968.31	0.045
969.15	0.046
970.00	0.041
970.85	0.038
971.69	0.045
972.54	0.044
973.39	0.038
974.23	0.043
975.08	0.044
975.92	0.042
976.77	0.046
977.61	0.040
978.46	0.042
979.30	0.046
980.15	0.043
980.99	0.045
981.84	0.044
982.68	0.047
983.53	0.047
984.37	0.051
985.22	0.043
986.06	0.042
986.90	0.046
987.75	0.039
988.59	0.045
989.43	0.047
990.28	0.047
991.12	0.040
991.96	0.045
992.81	0.046
993.65	0.045
994.49	0.039
995.34	0.045
996.18	0.046
997.02	0.045
997.86	0.043
998.70	0.050
999.55	0.051
1000.39	0.043
1001.23	0.050
1002.07	0.048
1002.91	0.052
1003.75	0.047
1004.59	0.050
1005.43	0.049
1006.28	0.051
1007.12	0.047
1007.96	0.046
1008.80	0.045
1009.64	0.045
1010.48	0.051
1011.32	0.050
1012.16	0.049
1013.00	0.055
1013.84	0.051
1014.67	0.046
1015.51	0.042
1016.35	0.045
1017.19	0.036
1018.03	0.052
1018.87	0.044
1019.71	0.047
1020.55	0.045
1021.38	0.048
1022.22	0.057
1023.06	0.051
1023.90	0.043
1024.74	0.052
1025.57	0.052
1026.41	0.045
1027.25	0.045
1028.08	0.056
1028.92	0.052
1029.76	0.039
1030.60	0.052
1031.43	0.045
1032.27	0.056
1033.10	0.052
1033.94	0.056
1034.78	0.051
1035.61	0.062
1036.45	0.043
1037.28	0.047
1038.12	0.050
1038.95	0.048
1039.79	0.052
1040.62	0.055
1041.46	0.075
1042.29	0.066
1043.13	0.073
1043.96	0.055
1044.80	0.054
1045.63	0.056
1046.47	0.059
1047.30	0.048
1048.13	0.051
1048.97	0.061
1049.80	0.042
1050.63	0.049
1051.47	0.043
1052.30	0.077
1053.13	0.055
1053.97	0.073
1054.80	0.110
1055.63	0.076
1056.46	0.079
1057.29	0.065
1058.13	0.102
1058.96	0.042
1059.79	0.083
1060.62	0.084
1061.45	0.104
1062.28	0.073
1063.12	0.113
1063.95	0.086
1064.78	0.121
1065.61	0.089
1066.44	0.057
1067.27	0.062
1068.10	0.151
1068.93	0.206
1069.76	0.123
1070.59	0.072
1071.42	0.085
1072.25	0.152
1073.08	0.167
1073.91	0.157
1074.74	0.240
1075.57	0.084
1076.40	0.131
1077.22	0.234
1078.05	0.254
1078.88	0.177
1079.71	0.365
1080.54	0.086
1081.37	0.922
1082.19	0.198
1083.02	0.406
1083.85	0.083
1084.68	0.333
1085.50	0.090
1086.33	1.007
1087.16	0.388
1087.98	0.261
1088.81	0.255
1089.64	0.166
1090.46	0.353
1091.29	0.088
1092.12	1.230
1092.94	0.242
1093.77	0.544
1094.59	0.077
1095.42	0.446
1096.25	-0.000
1097.07	0.122
1097.90	0.232
1098.72	0.138
1099.13	0.267
>>>>>End Processed Spectral Data<<<<<