File: assets/data/P12/uvvis/cuvette+EtOH.txt
SpectraSuite Data File
++++++++++++++++++++++++++++++++++++
Date: Tue Mar 29 10:35:07 CEST 2016
User: IPCE
Dark Spectrum Present: Yes
Reference Spectrum Present: Yes
Number of Sampled Component Spectra: 1
Spectrometers: HR+C0708
Integration Time (usec): 1000 (HR+C0708)
Spectra Averaged: 10 (HR+C0708)
Boxcar Smoothing: 0 (HR+C0708)
Correct for Electrical Dark: No (HR+C0708)
Strobe/Lamp Enabled: No (HR+C0708)
Correct for Detector Non-linearity: No (HR+C0708)
Correct for Stray Light: No (HR+C0708)
Number of Pixels in Processed Spectrum: 2048
>>>>>Begin Processed Spectral Data<<<<<
188.76	0.356
189.70	0.583
190.64	0.753
191.59	0.190
192.53	0.276
193.48	0.588
194.42	0.959
195.37	0.458
196.31	0.290
197.26	0.199
198.20	-0.000
199.14	0.287
200.09	0.462
201.03	0.202
201.97	0.220
202.92	0.301
203.86	0.215
204.80	0.321
205.75	0.292
206.69	0.178
207.63	0.156
208.58	0.252
209.52	0.210
210.46	0.295
211.41	0.220
212.35	0.307
213.29	0.296
214.23	0.317
215.18	0.445
216.12	0.494
217.06	0.478
218.00	0.450
218.94	0.526
219.89	0.651
220.83	0.758
221.77	0.649
222.71	0.774
223.65	0.814
224.59	0.882
225.54	0.956
226.48	1.092
227.42	1.256
228.36	1.126
229.30	1.376
230.24	1.393
231.18	1.638
232.12	1.513
233.06	1.614
234.00	1.755
234.94	1.685
235.88	1.725
236.82	1.860
237.76	1.850
238.70	1.915
239.64	2.049
240.58	1.987
241.52	2.070
242.46	1.997
243.40	2.137
244.34	2.098
245.28	2.175
246.22	2.115
247.16	2.125
248.10	2.114
249.04	2.249
249.98	2.223
250.92	2.088
251.85	2.098
252.79	1.943
253.73	1.922
254.67	1.756
255.61	1.631
256.55	1.466
257.49	1.351
258.42	1.254
259.36	1.157
260.30	1.082
261.24	1.019
262.17	0.960
263.11	0.902
264.05	0.856
264.99	0.806
265.92	0.765
266.86	0.720
267.80	0.681
268.74	0.651
269.67	0.613
270.61	0.585
271.55	0.553
272.48	0.530
273.42	0.504
274.36	0.481
275.29	0.457
276.23	0.440
277.16	0.416
278.10	0.398
279.04	0.380
279.97	0.366
280.91	0.348
281.84	0.335
282.78	0.321
283.72	0.307
284.65	0.295
285.59	0.283
286.52	0.270
287.46	0.257
288.39	0.241
289.33	0.228
290.26	0.219
291.20	0.204
292.13	0.196
293.07	0.187
294.00	0.177
294.93	0.168
295.87	0.161
296.80	0.153
297.74	0.149
298.67	0.139
299.60	0.135
300.54	0.128
301.47	0.124
302.41	0.117
303.34	0.113
304.27	0.106
305.21	0.103
306.14	0.097
307.07	0.092
308.01	0.089
308.94	0.083
309.87	0.080
310.80	0.078
311.74	0.074
312.67	0.072
313.60	0.067
314.53	0.065
315.47	0.064
316.40	0.059
317.33	0.057
318.26	0.059
319.19	0.055
320.13	0.051
321.06	0.050
321.99	0.049
322.92	0.047
323.85	0.048
324.78	0.047
325.71	0.047
326.64	0.046
327.58	0.041
328.51	0.042
329.44	0.040
330.37	0.038
331.30	0.037
332.23	0.038
333.16	0.032
334.09	0.036
335.02	0.034
335.95	0.034
336.88	0.033
337.81	0.029
338.74	0.029
339.67	0.030
340.60	0.026
341.53	0.026
342.46	0.028
343.39	0.023
344.32	0.023
345.25	0.023
346.17	0.024
347.10	0.021
348.03	0.025
348.96	0.024
349.89	0.022
350.82	0.023
351.75	0.024
352.67	0.025
353.60	0.021
354.53	0.021
355.46	0.018
356.39	0.020
357.31	0.019
358.24	0.018
359.17	0.017
360.10	0.021
361.03	0.018
361.95	0.017
362.88	0.016
363.81	0.017
364.73	0.014
365.66	0.018
366.59	0.016
367.51	0.015
368.44	0.017
369.37	0.017
370.29	0.013
371.22	0.013
372.15	0.013
373.07	0.014
374.00	0.012
374.92	0.014
375.85	0.014
376.78	0.011
377.70	0.011
378.63	0.016
379.55	0.012
380.48	0.013
381.40	0.011
382.33	0.014
383.25	0.012
384.18	0.013
385.10	0.010
386.03	0.012
386.95	0.009
387.88	0.013
388.80	0.012
389.72	0.013
390.65	0.013
391.57	0.010
392.50	0.011
393.42	0.010
394.34	0.011
395.27	0.012
396.19	0.011
397.12	0.010
398.04	0.011
398.96	0.009
399.89	0.010
400.81	0.013
401.73	0.010
402.65	0.010
403.58	0.010
404.50	0.008
405.42	0.007
406.34	0.011
407.27	0.008
408.19	0.010
409.11	0.008
410.03	0.010
410.96	0.011
411.88	0.009
412.80	0.011
413.72	0.010
414.64	0.010
415.56	0.010
416.48	0.009
417.41	0.008
418.33	0.008
419.25	0.009
420.17	0.009
421.09	0.008
422.01	0.008
422.93	0.008
423.85	0.009
424.77	0.008
425.69	0.009
426.61	0.009
427.53	0.007
428.45	0.008
429.37	0.009
430.29	0.008
431.21	0.007
432.13	0.009
433.05	0.010
433.97	0.007
434.89	0.010
435.81	0.007
436.73	0.009
437.65	0.008
438.57	0.007
439.48	0.005
440.40	0.008
441.32	0.007
442.24	0.008
443.16	0.007
444.08	0.007
444.99	0.008
445.91	0.007
446.83	0.008
447.75	0.008
448.67	0.008
449.58	0.007
450.50	0.010
451.42	0.009
452.34	0.006
453.25	0.008
454.17	0.006
455.09	0.005
456.00	0.007
456.92	0.009
457.84	0.008
458.75	0.005
459.67	0.006
460.59	0.008
461.50	0.006
462.42	0.007
463.33	0.004
464.25	0.005
465.17	0.005
466.08	0.006
467.00	0.004
467.91	0.004
468.83	0.006
469.74	0.006
470.66	0.005
471.57	0.004
472.49	0.003
473.40	0.007
474.32	0.007
475.23	0.005
476.15	0.004
477.06	0.005
477.98	0.004
478.89	0.005
479.80	0.003
480.72	0.004
481.63	0.005
482.55	0.004
483.46	0.008
484.37	0.005
485.29	0.004
486.20	0.004
487.11	0.004
488.03	0.004
488.94	0.005
489.85	0.006
490.77	0.006
491.68	0.002
492.59	0.005
493.50	0.003
494.42	0.002
495.33	0.003
496.24	0.004
497.15	0.005
498.06	0.003
498.98	0.001
499.89	0.004
500.80	0.003
501.71	0.005
502.62	0.003
503.53	0.003
504.44	0.005
505.36	0.004
506.27	0.002
507.18	0.003
508.09	-0.000
509.00	0.003
509.91	0.004
510.82	0.004
511.73	0.002
512.64	0.001
513.55	0.002
514.46	0.002
515.37	0.002
516.28	0.003
517.19	0.005
518.10	0.003
519.01	0.002
519.92	0.001
520.83	0.004
521.74	0.002
522.65	0.002
523.55	0.002
524.46	0.003
525.37	0.003
526.28	0.003
527.19	0.002
528.10	0.003
529.01	0.003
529.91	-0.001
530.82	0.003
531.73	0.002
532.64	0.002
533.54	0.002
534.45	0.002
535.36	0.002
536.27	0.001
537.17	0.002
538.08	0.005
538.99	0.004
539.90	0.002
540.80	0.001
541.71	0.002
542.62	0.001
543.52	0.003
544.43	0.003
545.34	0.002
546.24	0.001
547.15	0.002
548.05	0.002
548.96	0.002
549.86	0.003
550.77	-0.001
551.68	0.002
552.58	0.001
553.49	0.003
554.39	0.002
555.30	0.001
556.20	0.001
557.11	0.001
558.01	0.002
558.92	0.001
559.82	-0.000
560.72	0.001
561.63	0.000
562.53	0.001
563.44	0.000
564.34	0.001
565.25	0.000
566.15	0.000
567.05	0.001
567.96	-0.000
568.86	0.001
569.76	-0.001
570.67	0.002
571.57	0.000
572.47	0.000
573.37	0.000
574.28	-0.001
575.18	0.000
576.08	0.001
576.98	-0.000
577.89	0.000
578.79	0.000
579.69	-0.001
580.59	0.001
581.49	-0.000
582.40	-0.001
583.30	-0.001
584.20	-0.000
585.10	0.000
586.00	-0.000
586.90	0.000
587.80	0.000
588.71	-0.001
589.61	0.000
590.51	-0.001
591.41	-0.000
592.31	0.000
593.21	-0.002
594.11	-0.003
595.01	-0.000
595.91	-0.001
596.81	-0.001
597.71	0.000
598.61	-0.001
599.51	-0.001
600.41	-0.001
601.31	-0.001
602.21	-0.000
603.10	-0.001
604.00	-0.002
604.90	-0.002
605.80	-0.003
606.70	-0.000
607.60	-0.002
608.50	-0.002
609.39	-0.001
610.29	-0.003
611.19	-0.001
612.09	-0.003
612.99	-0.001
613.88	-0.002
614.78	-0.001
615.68	-0.003
616.58	-0.001
617.47	-0.002
618.37	-0.000
619.27	-0.002
620.17	-0.002
621.06	-0.003
621.96	-0.002
622.86	-0.003
623.75	-0.002
624.65	-0.003
625.54	-0.002
626.44	-0.002
627.34	-0.002
628.23	-0.002
629.13	-0.001
630.02	-0.001
630.92	-0.001
631.81	-0.001
632.71	-0.000
633.61	-0.002
634.50	-0.002
635.40	-0.002
636.29	-0.002
637.18	-0.002
638.08	-0.002
638.97	-0.002
639.87	-0.002
640.76	-0.002
641.66	-0.005
642.55	-0.004
643.44	-0.003
644.34	-0.002
645.23	-0.003
646.13	-0.002
647.02	-0.003
647.91	-0.003
648.81	-0.003
649.70	-0.001
650.59	-0.003
651.48	-0.003
652.38	-0.002
653.27	-0.004
654.16	-0.005
655.06	-0.003
655.95	-0.005
656.84	-0.001
657.73	-0.002
658.62	-0.004
659.52	-0.003
660.41	-0.003
661.30	-0.004
662.19	-0.004
663.08	-0.002
663.97	-0.004
664.86	-0.004
665.75	-0.003
666.65	-0.003
667.54	-0.003
668.43	-0.005
669.32	-0.002
670.21	-0.004
671.10	-0.004
671.99	-0.005
672.88	-0.003
673.77	-0.003
674.66	-0.005
675.55	-0.003
676.44	-0.003
677.33	-0.003
678.22	-0.004
679.11	-0.004
679.99	-0.006
680.88	-0.004
681.77	-0.004
682.66	-0.004
683.55	-0.005
684.44	-0.003
685.33	-0.006
686.21	-0.003
687.10	-0.005
687.99	-0.006
688.88	-0.003
689.77	-0.005
690.65	-0.005
691.54	-0.006
692.43	-0.004
693.32	-0.004
694.20	-0.003
695.09	-0.005
695.98	-0.004
696.86	-0.002
697.75	-0.003
698.64	-0.004
699.52	-0.003
700.41	-0.004
701.30	-0.005
702.18	-0.004
703.07	-0.005
703.96	-0.004
704.84	-0.006
705.73	-0.004
706.61	-0.006
707.50	-0.003
708.38	-0.005
709.27	-0.003
710.15	-0.004
711.04	-0.004
711.92	-0.003
712.81	-0.006
713.69	-0.004
714.58	-0.004
715.46	-0.002
716.35	0.000
717.23	-0.003
718.11	-0.005
719.00	-0.003
719.88	-0.005
720.76	-0.003
721.65	-0.005
722.53	-0.002
723.41	-0.003
724.30	-0.003
725.18	-0.001
726.06	-0.002
726.95	-0.004
727.83	-0.002
728.71	-0.002
729.59	-0.000
730.48	-0.001
731.36	-0.000
732.24	-0.001
733.12	-0.002
734.00	-0.000
734.89	-0.002
735.77	-0.001
736.65	0.001
737.53	-0.001
738.41	0.002
739.29	0.001
740.17	0.001
741.05	0.003
741.93	0.002
742.81	0.003
743.70	0.001
744.58	0.001
745.46	0.003
746.34	0.000
747.22	-0.001
748.10	-0.002
748.98	-0.003
749.86	0.003
750.73	0.002
751.61	0.000
752.49	0.002
753.37	-0.000
754.25	-0.001
755.13	-0.001
756.01	-0.001
756.89	-0.002
757.77	0.002
758.64	0.001
759.52	0.002
760.40	-0.000
761.28	-0.000
762.16	0.002
763.03	-0.002
763.91	0.001
764.79	-0.001
765.67	-0.001
766.54	0.001
767.42	-0.000
768.30	0.001
769.17	0.001
770.05	-0.001
770.93	-0.002
771.80	-0.000
772.68	0.000
773.56	-0.001
774.43	-0.000
775.31	0.004
776.19	0.001
777.06	-0.001
777.94	-0.000
778.81	0.005
779.69	-0.002
780.56	-0.000
781.44	0.003
782.31	0.001
783.19	-0.003
784.06	-0.001
784.94	0.000
785.81	-0.003
786.69	-0.001
787.56	-0.002
788.43	0.001
789.31	0.000
790.18	-0.000
791.06	-0.001
791.93	-0.003
792.80	0.000
793.68	-0.002
794.55	0.001
795.42	0.001
796.30	-0.001
797.17	-0.001
798.04	0.001
798.91	-0.000
799.79	0.001
800.66	0.002
801.53	0.001
802.40	0.002
803.28	0.004
804.15	0.004
805.02	0.004
805.89	-0.000
806.76	0.002
807.63	0.001
808.51	0.000
809.38	0.001
810.25	0.004
811.12	0.004
811.99	-0.001
812.86	0.003
813.73	0.003
814.60	0.006
815.47	0.005
816.34	0.001
817.21	0.004
818.08	-0.000
818.95	0.003
819.82	0.001
820.69	0.007
821.56	0.001
822.43	0.002
823.30	0.005
824.17	0.000
825.04	0.003
825.90	0.004
826.77	-0.000
827.64	0.002
828.51	0.003
829.38	0.005
830.25	-0.001
831.11	0.001
831.98	0.001
832.85	0.006
833.72	0.007
834.58	0.001
835.45	0.001
836.32	0.003
837.19	0.003
838.05	-0.003
838.92	0.006
839.79	0.002
840.65	0.003
841.52	0.007
842.39	0.005
843.25	0.004
844.12	0.001
844.98	0.004
845.85	-0.001
846.71	0.002
847.58	0.004
848.45	0.006
849.31	0.002
850.18	0.002
851.04	0.006
851.91	0.004
852.77	0.005
853.64	0.003
854.50	0.008
855.36	0.008
856.23	0.007
857.09	0.006
857.96	0.002
858.82	0.006
859.68	0.001
860.55	0.009
861.41	0.003
862.27	0.005
863.14	0.008
864.00	0.005
864.86	0.007
865.73	0.002
866.59	0.003
867.45	0.009
868.31	0.007
869.18	0.005
870.04	0.004
870.90	0.010
871.76	0.009
872.62	0.010
873.49	0.009
874.35	0.013
875.21	0.013
876.07	0.016
876.93	0.015
877.79	0.015
878.65	0.013
879.51	0.017
880.37	0.015
881.23	0.014
882.10	0.017
882.96	0.016
883.82	0.015
884.68	0.016
885.54	0.015
886.39	0.019
887.25	0.014
888.11	0.014
888.97	0.027
889.83	0.017
890.69	0.027
891.55	0.023
892.41	0.020
893.27	0.025
894.13	0.029
894.98	0.030
895.84	0.030
896.70	0.036
897.56	0.033
898.42	0.044
899.27	0.039
900.13	0.045
900.99	0.046
901.85	0.054
902.70	0.052
903.56	0.055
904.42	0.060
905.27	0.058
906.13	0.061
906.99	0.063
907.84	0.063
908.70	0.067
909.56	0.066
910.41	0.063
911.27	0.059
912.12	0.057
912.98	0.054
913.84	0.047
914.69	0.047
915.55	0.044
916.40	0.042
917.26	0.043
918.11	0.036
918.97	0.044
919.82	0.038
920.67	0.033
921.53	0.038
922.38	0.034
923.24	0.033
924.09	0.038
924.94	0.033
925.80	0.036
926.65	0.034
927.50	0.035
928.36	0.035
929.21	0.036
930.06	0.038
930.92	0.036
931.77	0.033
932.62	0.036
933.47	0.031
934.33	0.034
935.18	0.040
936.03	0.035
936.88	0.033
937.73	0.035
938.59	0.032
939.44	0.039
940.29	0.034
941.14	0.032
941.99	0.029
942.84	0.033
943.69	0.029
944.54	0.026
945.39	0.028
946.24	0.025
947.09	0.030
947.94	0.025
948.79	0.023
949.64	0.027
950.49	0.022
951.34	0.016
952.19	0.020
953.04	0.026
953.89	0.024
954.74	0.022
955.59	0.019
956.44	0.025
957.29	0.022
958.14	0.018
958.98	0.024
959.83	0.021
960.68	0.019
961.53	0.025
962.38	0.026
963.22	0.022
964.07	0.023
964.92	0.025
965.77	0.028
966.61	0.028
967.46	0.027
968.31	0.030
969.15	0.030
970.00	0.025
970.85	0.026
971.69	0.024
972.54	0.028
973.39	0.020
974.23	0.027
975.08	0.031
975.92	0.033
976.77	0.028
977.61	0.030
978.46	0.036
979.30	0.030
980.15	0.035
980.99	0.035
981.84	0.037
982.68	0.041
983.53	0.040
984.37	0.044
985.22	0.038
986.06	0.036
986.90	0.041
987.75	0.043
988.59	0.041
989.43	0.046
990.28	0.045
991.12	0.045
991.96	0.045
992.81	0.044
993.65	0.050
994.49	0.054
995.34	0.047
996.18	0.053
997.02	0.058
997.86	0.052
998.70	0.053
999.55	0.060
1000.39	0.057
1001.23	0.058
1002.07	0.057
1002.91	0.060
1003.75	0.066
1004.59	0.066
1005.43	0.063
1006.28	0.067
1007.12	0.066
1007.96	0.064
1008.80	0.068
1009.64	0.067
1010.48	0.074
1011.32	0.079
1012.16	0.072
1013.00	0.077
1013.84	0.078
1014.67	0.071
1015.51	0.068
1016.35	0.070
1017.19	0.053
1018.03	0.070
1018.87	0.079
1019.71	0.064
1020.55	0.077
1021.38	0.067
1022.22	0.082
1023.06	0.064
1023.90	0.074
1024.74	0.063
1025.57	0.077
1026.41	0.058
1027.25	0.070
1028.08	0.068
1028.92	0.070
1029.76	0.069
1030.60	0.073
1031.43	0.079
1032.27	0.068
1033.10	0.071
1033.94	0.072
1034.78	0.072
1035.61	0.064
1036.45	0.062
1037.28	0.065
1038.12	0.067
1038.95	0.060
1039.79	0.079
1040.62	0.089
1041.46	0.090
1042.29	0.079
1043.13	0.077
1043.96	0.081
1044.80	0.069
1045.63	0.072
1046.47	0.089
1047.30	0.062
1048.13	0.043
1048.97	0.066
1049.80	0.079
1050.63	0.053
1051.47	0.082
1052.30	0.083
1053.13	0.069
1053.97	0.079
1054.80	0.113
1055.63	0.076
1056.46	0.102
1057.29	0.055
1058.13	0.109
1058.96	0.080
1059.79	0.099
1060.62	0.093
1061.45	0.080
1062.28	0.112
1063.12	0.096
1063.95	0.150
1064.78	0.096
1065.61	0.110
1066.44	0.092
1067.27	0.152
1068.10	0.114
1068.93	0.142
1069.76	0.052
1070.59	0.085
1071.42	0.273
1072.25	0.088
1073.08	0.194
1073.91	0.264
1074.74	0.258
1075.57	0.119
1076.40	0.160
1077.22	0.117
1078.05	0.341
1078.88	0.150
1079.71	0.272
1080.54	0.362
1081.37	0.265
1082.19	0.038
1083.02	0.378
1083.85	0.663
1084.68	0.271
1085.50	0.193
1086.33	0.382
1087.16	0.339
1087.98	0.023
1088.81	0.150
1089.64	0.727
1090.46	0.458
1091.29	0.264
1092.12	-0.000
1092.94	0.676
1093.77	0.461
1094.59	0.317
1095.42	0.859
1096.25	0.712
1097.07	0.259
1097.90	0.177
1098.72	0.978
1099.13	0.423
>>>>>End Processed Spectral Data<<<<<