File: assets/data/P12/uvvis/cuvette+water.txt
SpectraSuite Data File
++++++++++++++++++++++++++++++++++++
Date: Tue Mar 29 10:36:14 CEST 2016
User: IPCE
Dark Spectrum Present: Yes
Reference Spectrum Present: Yes
Number of Sampled Component Spectra: 1
Spectrometers: HR+C0708
Integration Time (usec): 1000 (HR+C0708)
Spectra Averaged: 10 (HR+C0708)
Boxcar Smoothing: 0 (HR+C0708)
Correct for Electrical Dark: No (HR+C0708)
Strobe/Lamp Enabled: No (HR+C0708)
Correct for Detector Non-linearity: No (HR+C0708)
Correct for Stray Light: No (HR+C0708)
Number of Pixels in Processed Spectrum: 2048
>>>>>Begin Processed Spectral Data<<<<<
188.76	0.663
189.70	0.264
190.64	0.494
191.59	0.495
192.53	-0.178
193.48	-0.049
194.42	0.680
195.37	0.935
196.31	0.159
197.26	0.151
198.20	-0.000
199.14	0.411
200.09	0.199
201.03	0.187
201.97	0.288
202.92	0.201
203.86	0.194
204.80	0.343
205.75	0.329
206.69	0.136
207.63	0.366
208.58	0.384
209.52	0.317
210.46	0.357
211.41	0.255
212.35	0.279
213.29	0.263
214.23	0.269
215.18	0.417
216.12	0.564
217.06	0.332
218.00	0.491
218.94	0.503
219.89	0.632
220.83	0.580
221.77	0.716
222.71	0.823
223.65	0.823
224.59	0.824
225.54	1.033
226.48	1.181
227.42	1.064
228.36	1.182
229.30	1.377
230.24	1.530
231.18	1.584
232.12	1.648
233.06	1.693
234.00	1.727
234.94	1.707
235.88	1.814
236.82	1.924
237.76	1.858
238.70	1.918
239.64	2.064
240.58	2.098
241.52	2.017
242.46	2.066
243.40	2.244
244.34	2.157
245.28	2.163
246.22	2.129
247.16	2.224
248.10	2.194
249.04	2.220
249.98	2.136
250.92	2.158
251.85	2.005
252.79	1.932
253.73	1.884
254.67	1.709
255.61	1.550
256.55	1.412
257.49	1.302
258.42	1.185
259.36	1.108
260.30	1.032
261.24	0.972
262.17	0.906
263.11	0.850
264.05	0.806
264.99	0.755
265.92	0.707
266.86	0.667
267.80	0.629
268.74	0.591
269.67	0.557
270.61	0.528
271.55	0.497
272.48	0.470
273.42	0.446
274.36	0.422
275.29	0.400
276.23	0.379
277.16	0.361
278.10	0.343
279.04	0.326
279.97	0.309
280.91	0.296
281.84	0.285
282.78	0.275
283.72	0.264
284.65	0.249
285.59	0.243
286.52	0.230
287.46	0.223
288.39	0.215
289.33	0.203
290.26	0.194
291.20	0.186
292.13	0.181
293.07	0.171
294.00	0.164
294.93	0.158
295.87	0.151
296.80	0.145
297.74	0.138
298.67	0.131
299.60	0.128
300.54	0.120
301.47	0.115
302.41	0.110
303.34	0.105
304.27	0.099
305.21	0.096
306.14	0.090
307.07	0.085
308.01	0.083
308.94	0.078
309.87	0.076
310.80	0.072
311.74	0.069
312.67	0.067
313.60	0.063
314.53	0.059
315.47	0.060
316.40	0.057
317.33	0.055
318.26	0.054
319.19	0.051
320.13	0.050
321.06	0.049
321.99	0.048
322.92	0.044
323.85	0.045
324.78	0.044
325.71	0.046
326.64	0.045
327.58	0.044
328.51	0.041
329.44	0.040
330.37	0.040
331.30	0.038
332.23	0.038
333.16	0.034
334.09	0.037
335.02	0.034
335.95	0.036
336.88	0.035
337.81	0.035
338.74	0.031
339.67	0.030
340.60	0.030
341.53	0.028
342.46	0.032
343.39	0.029
344.32	0.028
345.25	0.027
346.17	0.027
347.10	0.028
348.03	0.029
348.96	0.029
349.89	0.027
350.82	0.031
351.75	0.031
352.67	0.028
353.60	0.025
354.53	0.028
355.46	0.029
356.39	0.027
357.31	0.026
358.24	0.026
359.17	0.025
360.10	0.025
361.03	0.025
361.95	0.025
362.88	0.024
363.81	0.024
364.73	0.025
365.66	0.025
366.59	0.023
367.51	0.023
368.44	0.022
369.37	0.024
370.29	0.022
371.22	0.022
372.15	0.020
373.07	0.024
374.00	0.022
374.92	0.022
375.85	0.021
376.78	0.020
377.70	0.020
378.63	0.023
379.55	0.022
380.48	0.021
381.40	0.021
382.33	0.022
383.25	0.020
384.18	0.022
385.10	0.020
386.03	0.022
386.95	0.020
387.88	0.021
388.80	0.022
389.72	0.020
390.65	0.018
391.57	0.019
392.50	0.020
393.42	0.019
394.34	0.019
395.27	0.019
396.19	0.018
397.12	0.017
398.04	0.020
398.96	0.018
399.89	0.019
400.81	0.018
401.73	0.021
402.65	0.019
403.58	0.017
404.50	0.017
405.42	0.018
406.34	0.019
407.27	0.018
408.19	0.019
409.11	0.016
410.03	0.017
410.96	0.018
411.88	0.020
412.80	0.017
413.72	0.017
414.64	0.018
415.56	0.018
416.48	0.018
417.41	0.016
418.33	0.016
419.25	0.017
420.17	0.015
421.09	0.019
422.01	0.018
422.93	0.018
423.85	0.018
424.77	0.017
425.69	0.019
426.61	0.016
427.53	0.019
428.45	0.017
429.37	0.017
430.29	0.017
431.21	0.017
432.13	0.018
433.05	0.017
433.97	0.017
434.89	0.020
435.81	0.019
436.73	0.019
437.65	0.015
438.57	0.015
439.48	0.016
440.40	0.016
441.32	0.014
442.24	0.017
443.16	0.015
444.08	0.018
444.99	0.016
445.91	0.016
446.83	0.016
447.75	0.018
448.67	0.018
449.58	0.014
450.50	0.019
451.42	0.016
452.34	0.014
453.25	0.018
454.17	0.014
455.09	0.015
456.00	0.015
456.92	0.017
457.84	0.018
458.75	0.014
459.67	0.017
460.59	0.016
461.50	0.017
462.42	0.016
463.33	0.014
464.25	0.013
465.17	0.015
466.08	0.014
467.00	0.015
467.91	0.014
468.83	0.015
469.74	0.016
470.66	0.014
471.57	0.015
472.49	0.013
473.40	0.016
474.32	0.015
475.23	0.016
476.15	0.015
477.06	0.014
477.98	0.013
478.89	0.014
479.80	0.014
480.72	0.012
481.63	0.013
482.55	0.015
483.46	0.017
484.37	0.015
485.29	0.014
486.20	0.013
487.11	0.013
488.03	0.012
488.94	0.013
489.85	0.014
490.77	0.015
491.68	0.014
492.59	0.015
493.50	0.014
494.42	0.012
495.33	0.013
496.24	0.012
497.15	0.016
498.06	0.012
498.98	0.012
499.89	0.013
500.80	0.013
501.71	0.014
502.62	0.013
503.53	0.013
504.44	0.011
505.36	0.015
506.27	0.011
507.18	0.012
508.09	0.011
509.00	0.011
509.91	0.013
510.82	0.012
511.73	0.012
512.64	0.011
513.55	0.013
514.46	0.012
515.37	0.012
516.28	0.012
517.19	0.015
518.10	0.010
519.01	0.013
519.92	0.014
520.83	0.012
521.74	0.012
522.65	0.010
523.55	0.013
524.46	0.011
525.37	0.012
526.28	0.011
527.19	0.013
528.10	0.012
529.01	0.013
529.91	0.009
530.82	0.012
531.73	0.012
532.64	0.012
533.54	0.012
534.45	0.011
535.36	0.012
536.27	0.010
537.17	0.010
538.08	0.012
538.99	0.013
539.90	0.011
540.80	0.011
541.71	0.010
542.62	0.012
543.52	0.011
544.43	0.013
545.34	0.012
546.24	0.010
547.15	0.011
548.05	0.011
548.96	0.011
549.86	0.012
550.77	0.010
551.68	0.010
552.58	0.011
553.49	0.012
554.39	0.011
555.30	0.012
556.20	0.011
557.11	0.009
558.01	0.010
558.92	0.010
559.82	0.009
560.72	0.010
561.63	0.011
562.53	0.010
563.44	0.008
564.34	0.012
565.25	0.009
566.15	0.009
567.05	0.009
567.96	0.012
568.86	0.011
569.76	0.009
570.67	0.011
571.57	0.008
572.47	0.010
573.37	0.009
574.28	0.009
575.18	0.008
576.08	0.009
576.98	0.010
577.89	0.009
578.79	0.009
579.69	0.009
580.59	0.011
581.49	0.008
582.40	0.009
583.30	0.008
584.20	0.010
585.10	0.009
586.00	0.009
586.90	0.008
587.80	0.009
588.71	0.009
589.61	0.008
590.51	0.008
591.41	0.008
592.31	0.009
593.21	0.009
594.11	0.007
595.01	0.009
595.91	0.008
596.81	0.007
597.71	0.008
598.61	0.008
599.51	0.009
600.41	0.007
601.31	0.008
602.21	0.010
603.10	0.009
604.00	0.009
604.90	0.009
605.80	0.008
606.70	0.009
607.60	0.010
608.50	0.009
609.39	0.007
610.29	0.010
611.19	0.009
612.09	0.007
612.99	0.009
613.88	0.008
614.78	0.008
615.68	0.007
616.58	0.009
617.47	0.009
618.37	0.009
619.27	0.009
620.17	0.007
621.06	0.007
621.96	0.009
622.86	0.007
623.75	0.009
624.65	0.007
625.54	0.007
626.44	0.007
627.34	0.008
628.23	0.007
629.13	0.008
630.02	0.008
630.92	0.009
631.81	0.007
632.71	0.009
633.61	0.008
634.50	0.008
635.40	0.008
636.29	0.008
637.18	0.007
638.08	0.006
638.97	0.008
639.87	0.007
640.76	0.008
641.66	0.007
642.55	0.005
643.44	0.009
644.34	0.006
645.23	0.007
646.13	0.007
647.02	0.007
647.91	0.006
648.81	0.007
649.70	0.009
650.59	0.008
651.48	0.006
652.38	0.008
653.27	0.006
654.16	0.006
655.06	0.006
655.95	0.005
656.84	0.008
657.73	0.008
658.62	0.006
659.52	0.007
660.41	0.008
661.30	0.008
662.19	0.007
663.08	0.007
663.97	0.007
664.86	0.007
665.75	0.007
666.65	0.008
667.54	0.007
668.43	0.008
669.32	0.007
670.21	0.008
671.10	0.007
671.99	0.007
672.88	0.006
673.77	0.007
674.66	0.005
675.55	0.007
676.44	0.007
677.33	0.007
678.22	0.009
679.11	0.007
679.99	0.006
680.88	0.006
681.77	0.007
682.66	0.007
683.55	0.006
684.44	0.007
685.33	0.005
686.21	0.009
687.10	0.005
687.99	0.005
688.88	0.007
689.77	0.009
690.65	0.005
691.54	0.007
692.43	0.007
693.32	0.007
694.20	0.005
695.09	0.007
695.98	0.008
696.86	0.007
697.75	0.007
698.64	0.009
699.52	0.009
700.41	0.006
701.30	0.007
702.18	0.008
703.07	0.005
703.96	0.007
704.84	0.006
705.73	0.008
706.61	0.005
707.50	0.008
708.38	0.006
709.27	0.008
710.15	0.007
711.04	0.006
711.92	0.011
712.81	0.007
713.69	0.006
714.58	0.007
715.46	0.010
716.35	0.009
717.23	0.010
718.11	0.007
719.00	0.011
719.88	0.007
720.76	0.010
721.65	0.010
722.53	0.011
723.41	0.009
724.30	0.011
725.18	0.012
726.06	0.010
726.95	0.011
727.83	0.012
728.71	0.014
729.59	0.012
730.48	0.011
731.36	0.012
732.24	0.013
733.12	0.010
734.00	0.013
734.89	0.014
735.77	0.017
736.65	0.016
737.53	0.015
738.41	0.014
739.29	0.014
740.17	0.015
741.05	0.015
741.93	0.017
742.81	0.016
743.70	0.016
744.58	0.015
745.46	0.018
746.34	0.014
747.22	0.014
748.10	0.016
748.98	0.015
749.86	0.019
750.73	0.018
751.61	0.017
752.49	0.014
753.37	0.017
754.25	0.016
755.13	0.014
756.01	0.015
756.89	0.016
757.77	0.017
758.64	0.015
759.52	0.017
760.40	0.016
761.28	0.015
762.16	0.017
763.03	0.015
763.91	0.016
764.79	0.017
765.67	0.012
766.54	0.016
767.42	0.015
768.30	0.012
769.17	0.014
770.05	0.013
770.93	0.015
771.80	0.013
772.68	0.016
773.56	0.014
774.43	0.014
775.31	0.017
776.19	0.016
777.06	0.014
777.94	0.015
778.81	0.016
779.69	0.012
780.56	0.014
781.44	0.016
782.31	0.017
783.19	0.014
784.06	0.016
784.94	0.012
785.81	0.011
786.69	0.014
787.56	0.009
788.43	0.014
789.31	0.011
790.18	0.013
791.06	0.010
791.93	0.011
792.80	0.011
793.68	0.012
794.55	0.012
795.42	0.013
796.30	0.010
797.17	0.011
798.04	0.013
798.91	0.014
799.79	0.012
800.66	0.013
801.53	0.011
802.40	0.009
803.28	0.016
804.15	0.011
805.02	0.013
805.89	0.012
806.76	0.014
807.63	0.010
808.51	0.011
809.38	0.012
810.25	0.014
811.12	0.013
811.99	0.010
812.86	0.014
813.73	0.012
814.60	0.014
815.47	0.016
816.34	0.015
817.21	0.012
818.08	0.012
818.95	0.015
819.82	0.014
820.69	0.012
821.56	0.013
822.43	0.014
823.30	0.014
824.17	0.013
825.04	0.014
825.90	0.018
826.77	0.012
827.64	0.016
828.51	0.010
829.38	0.019
830.25	0.016
831.11	0.016
831.98	0.017
832.85	0.020
833.72	0.017
834.58	0.020
835.45	0.015
836.32	0.017
837.19	0.020
838.05	0.016
838.92	0.022
839.79	0.019
840.65	0.018
841.52	0.027
842.39	0.021
843.25	0.018
844.12	0.015
844.98	0.023
845.85	0.018
846.71	0.020
847.58	0.022
848.45	0.025
849.31	0.021
850.18	0.022
851.04	0.023
851.91	0.025
852.77	0.023
853.64	0.021
854.50	0.029
855.36	0.023
856.23	0.022
857.09	0.023
857.96	0.023
858.82	0.024
859.68	0.022
860.55	0.024
861.41	0.023
862.27	0.021
863.14	0.027
864.00	0.031
864.86	0.023
865.73	0.023
866.59	0.025
867.45	0.033
868.31	0.022
869.18	0.024
870.04	0.025
870.90	0.024
871.76	0.026
872.62	0.030
873.49	0.031
874.35	0.027
875.21	0.033
876.07	0.032
876.93	0.031
877.79	0.026
878.65	0.030
879.51	0.028
880.37	0.040
881.23	0.029
882.10	0.030
882.96	0.029
883.82	0.030
884.68	0.031
885.54	0.029
886.39	0.035
887.25	0.028
888.11	0.030
888.97	0.037
889.83	0.036
890.69	0.039
891.55	0.034
892.41	0.033
893.27	0.037
894.13	0.036
894.98	0.038
895.84	0.035
896.70	0.034
897.56	0.037
898.42	0.042
899.27	0.038
900.13	0.034
900.99	0.040
901.85	0.043
902.70	0.039
903.56	0.038
904.42	0.039
905.27	0.039
906.13	0.036
906.99	0.039
907.84	0.036
908.70	0.043
909.56	0.035
910.41	0.038
911.27	0.046
912.12	0.040
912.98	0.039
913.84	0.041
914.69	0.043
915.55	0.038
916.40	0.042
917.26	0.041
918.11	0.039
918.97	0.041
919.82	0.042
920.67	0.040
921.53	0.048
922.38	0.041
923.24	0.050
924.09	0.048
924.94	0.048
925.80	0.049
926.65	0.049
927.50	0.053
928.36	0.053
929.21	0.057
930.06	0.061
930.92	0.063
931.77	0.059
932.62	0.063
933.47	0.066
934.33	0.069
935.18	0.073
936.03	0.073
936.88	0.077
937.73	0.078
938.59	0.081
939.44	0.086
940.29	0.088
941.14	0.084
941.99	0.088
942.84	0.099
943.69	0.096
944.54	0.098
945.39	0.105
946.24	0.114
947.09	0.112
947.94	0.118
948.79	0.122
949.64	0.128
950.49	0.126
951.34	0.130
952.19	0.137
953.04	0.153
953.89	0.153
954.74	0.161
955.59	0.169
956.44	0.174
957.29	0.179
958.14	0.177
958.98	0.190
959.83	0.183
960.68	0.191
961.53	0.185
962.38	0.196
963.22	0.198
964.07	0.195
964.92	0.198
965.77	0.210
966.61	0.197
967.46	0.208
968.31	0.207
969.15	0.213
970.00	0.207
970.85	0.211
971.69	0.212
972.54	0.206
973.39	0.209
974.23	0.207
975.08	0.215
975.92	0.209
976.77	0.219
977.61	0.215
978.46	0.214
979.30	0.215
980.15	0.214
980.99	0.219
981.84	0.214
982.68	0.209
983.53	0.217
984.37	0.218
985.22	0.207
986.06	0.204
986.90	0.217
987.75	0.208
988.59	0.205
989.43	0.209
990.28	0.205
991.12	0.199
991.96	0.200
992.81	0.201
993.65	0.201
994.49	0.195
995.34	0.196
996.18	0.207
997.02	0.197
997.86	0.200
998.70	0.196
999.55	0.196
1000.39	0.184
1001.23	0.189
1002.07	0.187
1002.91	0.188
1003.75	0.185
1004.59	0.185
1005.43	0.179
1006.28	0.175
1007.12	0.177
1007.96	0.174
1008.80	0.172
1009.64	0.163
1010.48	0.169
1011.32	0.170
1012.16	0.177
1013.00	0.164
1013.84	0.163
1014.67	0.160
1015.51	0.152
1016.35	0.144
1017.19	0.144
1018.03	0.159
1018.87	0.149
1019.71	0.150
1020.55	0.148
1021.38	0.152
1022.22	0.134
1023.06	0.145
1023.90	0.129
1024.74	0.140
1025.57	0.136
1026.41	0.139
1027.25	0.131
1028.08	0.134
1028.92	0.122
1029.76	0.147
1030.60	0.129
1031.43	0.121
1032.27	0.118
1033.10	0.122
1033.94	0.125
1034.78	0.118
1035.61	0.120
1036.45	0.108
1037.28	0.127
1038.12	0.095
1038.95	0.114
1039.79	0.125
1040.62	0.108
1041.46	0.112
1042.29	0.104
1043.13	0.125
1043.96	0.106
1044.80	0.115
1045.63	0.117
1046.47	0.127
1047.30	0.084
1048.13	0.074
1048.97	0.119
1049.80	0.087
1050.63	0.105
1051.47	0.105
1052.30	0.135
1053.13	0.078
1053.97	0.114
1054.80	0.104
1055.63	0.101
1056.46	0.079
1057.29	0.124
1058.13	0.151
1058.96	0.107
1059.79	0.110
1060.62	0.117
1061.45	0.155
1062.28	0.072
1063.12	0.101
1063.95	0.123
1064.78	0.137
1065.61	0.078
1066.44	0.109
1067.27	0.142
1068.10	0.104
1068.93	0.115
1069.76	0.159
1070.59	0.151
1071.42	0.095
1072.25	0.231
1073.08	0.189
1073.91	0.279
1074.74	0.076
1075.57	0.157
1076.40	0.185
1077.22	0.302
1078.05	0.275
1078.88	0.110
1079.71	0.647
1080.54	-0.042
1081.37	0.674
1082.19	0.432
1083.02	-0.000
1083.85	0.073
1084.68	0.381
1085.50	0.280
1086.33	0.349
1087.16	0.146
1087.98	0.186
1088.81	0.454
1089.64	0.272
1090.46	0.559
1091.29	0.285
1092.12	-0.000
1092.94	0.210
1093.77	0.434
1094.59	0.248
1095.42	0.510
1096.25	0.035
1097.07	0.119
1097.90	0.585
1098.72	0.477
1099.13	0.356
>>>>>End Processed Spectral Data<<<<<