File: assets/data/P12/uvvis/reference.txt
SpectraSuite Data File
++++++++++++++++++++++++++++++++++++
Date: Tue Mar 29 10:18:15 CEST 2016
User: IPCE
Dark Spectrum Present: Yes
Reference Spectrum Present: Yes
Number of Sampled Component Spectra: 1
Spectrometers: HR+C0708
Integration Time (usec): 1000 (HR+C0708)
Spectra Averaged: 10 (HR+C0708)
Boxcar Smoothing: 0 (HR+C0708)
Correct for Electrical Dark: No (HR+C0708)
Strobe/Lamp Enabled: No (HR+C0708)
Correct for Detector Non-linearity: No (HR+C0708)
Correct for Stray Light: No (HR+C0708)
Number of Pixels in Processed Spectrum: 2048
>>>>>Begin Processed Spectral Data<<<<<
188.76	687.70
189.70	696.30
190.64	693.40
191.59	693.20
192.53	698.80
193.48	694.60
194.42	698.70
195.37	696.30
196.31	697.60
197.26	692.50
198.20	694.40
199.14	697.80
200.09	702.10
201.03	733.10
201.97	724.90
202.92	725.60
203.86	731.40
204.80	730.80
205.75	726.90
206.69	727.20
207.63	725.10
208.58	728.20
209.52	731.60
210.46	728.90
211.41	731.40
212.35	734.90
213.29	747.20
214.23	750.10
215.18	748.80
216.12	759.70
217.06	764.70
218.00	772.90
218.94	781.10
219.89	795.30
220.83	814.80
221.77	823.10
222.71	846.40
223.65	876.40
224.59	917.30
225.54	970.60
226.48	1030.70
227.42	1103.60
228.36	1190.60
229.30	1329.90
230.24	1458.90
231.18	1615.50
232.12	1783.80
233.06	1970.30
234.00	2163.60
234.94	2395.90
235.88	2628.40
236.82	2889.70
237.76	3195.70
238.70	3467.70
239.64	3792.60
240.58	4098.00
241.52	4449.70
242.46	4773.20
243.40	5001.70
244.34	5201.60
245.28	5501.00
246.22	5643.20
247.16	5748.90
248.10	5782.60
249.04	5866.90
249.98	5893.70
250.92	5843.40
251.85	5797.80
252.79	5706.40
253.73	5865.60
254.67	6307.10
255.61	6982.80
256.55	7605.70
257.49	8016.00
258.42	8407.30
259.36	8586.40
260.30	8828.50
261.24	9033.50
262.17	9265.90
263.11	9450.00
264.05	9576.60
264.99	9491.50
265.92	9581.00
266.86	9658.40
267.80	9634.70
268.74	9478.80
269.67	9320.90
270.61	9056.60
271.55	8652.30
272.48	8523.00
273.42	8319.20
274.36	8351.40
275.29	8354.40
276.23	8206.60
277.16	8229.40
278.10	8140.00
279.04	7883.90
279.97	7922.80
280.91	8037.30
281.84	8345.80
282.78	8613.70
283.72	8947.40
284.65	9015.70
285.59	9031.60
286.52	9182.70
287.46	9223.50
288.39	9143.50
289.33	9111.30
290.26	8967.90
291.20	8793.80
292.13	8793.70
293.07	8707.40
294.00	8754.50
294.93	8801.60
295.87	8679.30
296.80	8700.50
297.74	8617.00
298.67	8494.00
299.60	8472.50
300.54	8351.00
301.47	8152.30
302.41	7972.20
303.34	7854.90
304.27	7652.70
305.21	7607.80
306.14	7701.60
307.07	7700.20
308.01	7895.40
308.94	7823.80
309.87	7802.00
310.80	7857.80
311.74	7867.50
312.67	7922.10
313.60	8045.10
314.53	8285.90
315.47	8533.70
316.40	8639.10
317.33	8642.40
318.26	8659.30
319.19	8599.80
320.13	8469.50
321.06	8370.50
321.99	8102.80
322.92	7863.50
323.85	7586.30
324.78	7263.50
325.71	6960.60
326.64	6764.70
327.58	6703.30
328.51	6718.40
329.44	6941.40
330.37	7160.50
331.30	7328.80
332.23	7567.60
333.16	7730.20
334.09	7830.10
335.02	7700.50
335.95	7333.60
336.88	6761.00
337.81	6777.50
338.74	7018.40
339.67	7475.10
340.60	7898.50
341.53	7881.30
342.46	7572.80
343.39	7102.10
344.32	6898.20
345.25	7288.00
346.17	7248.90
347.10	7207.80
348.03	6738.20
348.96	5814.70
349.89	5188.50
350.82	4692.40
351.75	4290.00
352.67	3975.20
353.60	3752.50
354.53	3781.10
355.46	3976.30
356.39	4321.00
357.31	4735.40
358.24	5244.60
359.17	5706.70
360.10	6060.30
361.03	6366.30
361.95	6509.20
362.88	6713.40
363.81	6783.80
364.73	6792.90
365.66	6769.60
366.59	6613.80
367.51	6651.50
368.44	6440.80
369.37	6301.40
370.29	6221.80
371.22	6249.00
372.15	6405.30
373.07	6598.40
374.00	6764.70
374.92	6894.50
375.85	7139.90
376.78	7214.60
377.70	7243.70
378.63	7417.20
379.55	7532.60
380.48	7447.00
381.40	7511.50
382.33	7340.20
383.25	7359.20
384.18	7261.00
385.10	7153.00
386.03	7043.80
386.95	7015.20
387.88	7143.50
388.80	7297.90
389.72	7187.00
390.65	7052.80
391.57	7214.20
392.50	7609.50
393.42	7777.10
394.34	7449.10
395.27	7265.80
396.19	7394.00
397.12	7479.60
398.04	7848.20
398.96	8197.50
399.89	7796.30
400.81	7436.30
401.73	7281.90
402.65	7205.80
403.58	7168.60
404.50	7176.60
405.42	7120.10
406.34	7157.60
407.27	6762.70
408.19	6714.10
409.11	6947.80
410.03	6848.50
410.96	6606.00
411.88	6635.60
412.80	6952.80
413.72	6934.00
414.64	6898.00
415.56	6774.90
416.48	6813.10
417.41	6844.40
418.33	6832.90
419.25	6897.80
420.17	7164.00
421.09	7566.80
422.01	7798.00
422.93	7494.30
423.85	7277.50
424.77	7187.50
425.69	7038.40
426.61	6925.30
427.53	6822.50
428.45	7007.00
429.37	7349.30
430.29	8255.00
431.21	8206.40
432.13	7009.30
433.05	6863.30
433.97	7034.10
434.89	6985.00
435.81	6522.30
436.73	6164.90
437.65	6015.00
438.57	5645.10
439.48	5440.00
440.40	5231.20
441.32	5277.90
442.24	5472.50
443.16	5563.50
444.08	5710.40
444.99	5804.30
445.91	5835.40
446.83	6101.40
447.75	6172.20
448.67	6286.20
449.58	6392.10
450.50	6335.20
451.42	6098.80
452.34	6041.10
453.25	5978.70
454.17	5898.50
455.09	5859.90
456.00	6051.30
456.92	6113.10
457.84	6340.00
458.75	6793.10
459.67	7031.50
460.59	7788.60
461.50	8177.10
462.42	8917.30
463.33	9957.70
464.25	10546.80
465.17	10805.00
466.08	10737.40
467.00	10630.40
467.91	10313.70
468.83	9765.80
469.74	9705.80
470.66	9220.00
471.57	9243.80
472.49	8985.50
473.40	8940.40
474.32	8884.10
475.23	8904.20
476.15	8900.50
477.06	8633.10
477.98	8508.80
478.89	8712.70
479.80	8646.90
480.72	8782.30
481.63	8999.20
482.55	9194.30
483.46	9477.10
484.37	9704.70
485.29	9937.40
486.20	10401.70
487.11	10416.90
488.03	10419.10
488.94	10452.20
489.85	10448.70
490.77	10493.40
491.68	10384.30
492.59	10322.50
493.50	10391.00
494.42	10329.60
495.33	10306.60
496.24	10201.70
497.15	10208.80
498.06	10167.30
498.98	10166.00
499.89	10219.80
500.80	10223.60
501.71	10332.10
502.62	10376.70
503.53	10566.30
504.44	10689.10
505.36	10848.00
506.27	11054.90
507.18	11193.50
508.09	11237.50
509.00	11149.60
509.91	10872.20
510.82	10581.00
511.73	10178.20
512.64	9847.40
513.55	9552.00
514.46	9351.00
515.37	9259.80
516.28	9183.50
517.19	9193.10
518.10	9274.60
519.01	9371.00
519.92	9453.80
520.83	9605.30
521.74	9743.20
522.65	9899.80
523.55	9968.00
524.46	10099.90
525.37	10104.10
526.28	10109.50
527.19	10077.70
528.10	10000.90
529.01	9935.10
529.91	9920.80
530.82	9862.00
531.73	9821.20
532.64	9745.70
533.54	9819.40
534.45	9798.60
535.36	9799.20
536.27	9842.70
537.17	9850.10
538.08	9884.60
538.99	9983.40
539.90	10006.80
540.80	10045.70
541.71	10153.70
542.62	10229.10
543.52	10275.20
544.43	10371.60
545.34	10440.50
546.24	10596.30
547.15	10561.30
548.05	10733.50
548.96	10828.60
549.86	10932.70
550.77	11056.80
551.68	11183.00
552.58	11275.80
553.49	11314.20
554.39	11371.60
555.30	11503.80
556.20	11561.20
557.11	11581.50
558.01	11625.30
558.92	11683.90
559.82	11752.50
560.72	11743.70
561.63	11864.60
562.53	11915.00
563.44	11908.30
564.34	11963.20
565.25	12093.40
566.15	12110.00
567.05	12187.80
567.96	12252.40
568.86	12357.60
569.76	12486.20
570.67	12640.20
571.57	12784.80
572.47	12894.90
573.37	12965.40
574.28	13157.70
575.18	13326.20
576.08	13297.40
576.98	13437.50
577.89	13662.50
578.79	13681.90
579.69	13637.70
580.59	13760.10
581.49	13882.50
582.40	14035.70
583.30	13920.00
584.20	13916.50
585.10	13961.40
586.00	14049.40
586.90	13956.30
587.80	14006.50
588.71	13885.40
589.61	13896.90
590.51	13850.10
591.41	13724.10
592.31	13695.10
593.21	13666.30
594.11	13636.40
595.01	13604.20
595.91	13560.20
596.81	13541.40
597.71	13552.60
598.61	13513.30
599.51	13542.90
600.41	13527.90
601.31	13580.30
602.21	13499.40
603.10	13485.70
604.00	13616.70
604.90	13536.40
605.80	13558.20
606.70	13653.40
607.60	13595.10
608.50	13660.00
609.39	13683.70
610.29	13712.30
611.19	13719.70
612.09	13708.50
612.99	13793.20
613.88	13804.40
614.78	13846.70
615.68	13844.10
616.58	13845.20
617.47	13847.80
618.37	13947.10
619.27	13930.40
620.17	13884.70
621.06	13981.10
621.96	13964.90
622.86	13968.10
623.75	13962.90
624.65	14039.80
625.54	14056.80
626.44	13977.00
627.34	14000.50
628.23	13964.80
629.13	13994.00
630.02	13951.80
630.92	13963.30
631.81	13948.20
632.71	13899.40
633.61	13935.10
634.50	13930.60
635.40	13838.10
636.29	13840.80
637.18	13915.20
638.08	13830.00
638.97	13835.10
639.87	13807.40
640.76	13770.30
641.66	13757.80
642.55	13721.80
643.44	13672.10
644.34	13646.50
645.23	13641.90
646.13	13588.30
647.02	13519.10
647.91	13481.40
648.81	13490.50
649.70	13476.80
650.59	13397.40
651.48	13351.80
652.38	13340.80
653.27	13240.50
654.16	13220.20
655.06	13147.60
655.95	13622.60
656.84	15178.70
657.73	13225.80
658.62	12972.50
659.52	12948.70
660.41	12861.40
661.30	12830.30
662.19	12770.80
663.08	12691.50
663.97	12664.70
664.86	12585.00
665.75	12645.80
666.65	12598.00
667.54	12572.40
668.43	12584.00
669.32	12501.10
670.21	12377.80
671.10	12376.50
671.99	12243.40
672.88	12310.10
673.77	12154.50
674.66	12077.70
675.55	11988.00
676.44	12003.60
677.33	11945.20
678.22	11845.80
679.11	11861.70
679.99	11766.40
680.88	11738.20
681.77	11695.50
682.66	11642.20
683.55	11607.20
684.44	11529.00
685.33	11559.80
686.21	11459.40
687.10	11464.80
687.99	11320.70
688.88	11325.40
689.77	11273.80
690.65	11237.90
691.54	11173.30
692.43	11030.70
693.32	10953.00
694.20	10995.10
695.09	10929.40
695.98	10884.80
696.86	10734.40
697.75	10693.50
698.64	10586.70
699.52	10494.30
700.41	10431.30
701.30	10361.50
702.18	10320.50
703.07	10174.70
703.96	10068.30
704.84	9983.10
705.73	9861.30
706.61	9759.90
707.50	9712.10
708.38	9631.20
709.27	9493.10
710.15	9389.30
711.04	9310.10
711.92	9207.00
712.81	9123.60
713.69	9013.90
714.58	8947.60
715.46	8840.20
716.35	8736.20
717.23	8650.50
718.11	8530.90
719.00	8493.70
719.88	8379.50
720.76	8258.80
721.65	8146.50
722.53	8068.00
723.41	7971.30
724.30	7902.30
725.18	7794.90
726.06	7761.80
726.95	7703.40
727.83	7720.60
728.71	7651.20
729.59	7588.20
730.48	7538.90
731.36	7520.50
732.24	7506.30
733.12	7429.00
734.00	7454.70
734.89	7410.10
735.77	7382.20
736.65	7372.80
737.53	7303.70
738.41	7292.60
739.29	7328.90
740.17	7253.70
741.05	7245.40
741.93	7190.90
742.81	7186.20
743.70	7196.50
744.58	7197.60
745.46	7154.40
746.34	7147.60
747.22	7114.30
748.10	7120.40
748.98	7090.00
749.86	7034.50
750.73	6994.80
751.61	6939.00
752.49	6872.30
753.37	6850.00
754.25	6809.40
755.13	6792.70
756.01	6701.60
756.89	6683.80
757.77	6657.40
758.64	6615.30
759.52	6544.00
760.40	6479.20
761.28	6472.80
762.16	6403.70
763.03	6362.30
763.91	6314.20
764.79	6252.90
765.67	6234.10
766.54	6151.30
767.42	6096.30
768.30	6009.90
769.17	5973.90
770.05	5940.10
770.93	5844.60
771.80	5781.80
772.68	5727.00
773.56	5666.60
774.43	5628.60
775.31	5548.40
776.19	5491.90
777.06	5454.10
777.94	5372.20
778.81	5319.50
779.69	5256.10
780.56	5146.00
781.44	5115.60
782.31	5079.50
783.19	4986.00
784.06	4915.50
784.94	4862.60
785.81	4824.50
786.69	4802.50
787.56	4690.80
788.43	4656.90
789.31	4599.20
790.18	4542.50
791.06	4491.20
791.93	4440.60
792.80	4394.80
793.68	4342.30
794.55	4306.90
795.42	4221.40
796.30	4226.70
797.17	4149.10
798.04	4139.00
798.91	4089.80
799.79	4035.50
800.66	4004.20
801.53	3940.60
802.40	3919.30
803.28	3856.00
804.15	3855.20
805.02	3812.00
805.89	3807.90
806.76	3732.70
807.63	3688.20
808.51	3668.10
809.38	3603.40
810.25	3571.60
811.12	3554.20
811.99	3515.60
812.86	3500.40
813.73	3475.10
814.60	3441.70
815.47	3388.60
816.34	3359.40
817.21	3370.70
818.08	3312.00
818.95	3294.00
819.82	3264.60
820.69	3229.70
821.56	3210.90
822.43	3140.00
823.30	3146.30
824.17	3132.10
825.04	3088.70
825.90	3074.10
826.77	3045.50
827.64	3002.60
828.51	2995.40
829.38	2947.10
830.25	2943.10
831.11	2920.40
831.98	2893.80
832.85	2881.50
833.72	2853.00
834.58	2854.10
835.45	2800.70
836.32	2791.60
837.19	2771.80
838.05	2751.00
838.92	2733.40
839.79	2714.40
840.65	2699.00
841.52	2673.40
842.39	2636.70
843.25	2622.50
844.12	2585.40
844.98	2579.50
845.85	2567.20
846.71	2543.20
847.58	2534.40
848.45	2516.90
849.31	2496.20
850.18	2474.70
851.04	2443.70
851.91	2449.90
852.77	2409.90
853.64	2413.20
854.50	2390.00
855.36	2365.30
856.23	2370.70
857.09	2342.80
857.96	2324.60
858.82	2310.00
859.68	2304.90
860.55	2285.00
861.41	2272.70
862.27	2270.30
863.14	2245.20
864.00	2213.30
864.86	2217.00
865.73	2199.00
866.59	2178.10
867.45	2189.20
868.31	2168.90
869.18	2147.50
870.04	2145.80
870.90	2114.40
871.76	2122.20
872.62	2112.00
873.49	2083.30
874.35	2092.00
875.21	2086.40
876.07	2059.50
876.93	2055.20
877.79	2042.30
878.65	2069.30
879.51	2066.40
880.37	2091.10
881.23	2094.80
882.10	2108.70
882.96	2133.10
883.82	2131.80
884.68	2176.60
885.54	2193.80
886.39	2221.00
887.25	2246.20
888.11	2262.20
888.97	2317.20
889.83	2320.50
890.69	2347.00
891.55	2394.50
892.41	2432.70
893.27	2471.40
894.13	2504.30
894.98	2537.90
895.84	2577.50
896.70	2612.10
897.56	2653.60
898.42	2677.80
899.27	2731.40
900.13	2753.00
900.99	2797.00
901.85	2840.00
902.70	2870.00
903.56	2928.90
904.42	2970.10
905.27	2998.30
906.13	3033.80
906.99	3062.00
907.84	3100.70
908.70	3135.80
909.56	3150.40
910.41	3167.60
911.27	3237.50
912.12	3236.50
912.98	3259.40
913.84	3295.80
914.69	3323.30
915.55	3316.50
916.40	3349.00
917.26	3350.60
918.11	3407.10
918.97	3421.10
919.82	3412.90
920.67	3412.20
921.53	3442.20
922.38	3433.50
923.24	3460.60
924.09	3428.00
924.94	3424.60
925.80	3402.80
926.65	3380.10
927.50	3391.00
928.36	3370.00
929.21	3375.60
930.06	3387.70
930.92	3330.60
931.77	3300.90
932.62	3225.70
933.47	3162.80
934.33	3036.40
935.18	2945.40
936.03	2775.10
936.88	2594.20
937.73	2409.00
938.59	2227.80
939.44	2077.50
940.29	1924.20
941.14	1823.10
941.99	1748.90
942.84	1688.60
943.69	1658.30
944.54	1649.60
945.39	1646.00
946.24	1671.20
947.09	1693.70
947.94	1744.80
948.79	1772.40
949.64	1831.40
950.49	1884.30
951.34	1935.50
952.19	1965.90
953.04	2025.60
953.89	2078.30
954.74	2108.80
955.59	2155.80
956.44	2180.60
957.29	2223.50
958.14	2248.20
958.98	2250.00
959.83	2278.10
960.68	2293.80
961.53	2300.50
962.38	2305.80
963.22	2306.60
964.07	2326.10
964.92	2308.60
965.77	2332.90
966.61	2330.10
967.46	2305.20
968.31	2299.40
969.15	2303.70
970.00	2296.00
970.85	2298.50
971.69	2263.70
972.54	2266.20
973.39	2243.60
974.23	2218.60
975.08	2181.20
975.92	2190.80
976.77	2182.40
977.61	2168.60
978.46	2146.90
979.30	2149.70
980.15	2140.20
980.99	2108.60
981.84	2122.30
982.68	2117.60
983.53	2100.20
984.37	2111.30
985.22	2105.80
986.06	2119.30
986.90	2112.10
987.75	2108.00
988.59	2106.40
989.43	2114.60
990.28	2111.40
991.12	2100.40
991.96	2090.60
992.81	2081.10
993.65	2053.20
994.49	2033.80
995.34	2026.20
996.18	1988.70
997.02	1951.50
997.86	1918.90
998.70	1897.20
999.55	1881.30
1000.39	1835.80
1001.23	1831.10
1002.07	1787.40
1002.91	1750.40
1003.75	1729.00
1004.59	1697.50
1005.43	1678.90
1006.28	1659.70
1007.12	1632.20
1007.96	1601.10
1008.80	1581.00
1009.64	1555.80
1010.48	1528.80
1011.32	1512.00
1012.16	1484.50
1013.00	1465.50
1013.84	1448.30
1014.67	1426.00
1015.51	1409.70
1016.35	1385.20
1017.19	1379.60
1018.03	1356.40
1018.87	1340.90
1019.71	1322.00
1020.55	1306.60
1021.38	1290.10
1022.22	1268.70
1023.06	1260.90
1023.90	1245.70
1024.74	1229.30
1025.57	1219.30
1026.41	1187.40
1027.25	1189.70
1028.08	1164.90
1028.92	1155.20
1029.76	1144.30
1030.60	1131.90
1031.43	1136.10
1032.27	1122.70
1033.10	1099.20
1033.94	1094.50
1034.78	1075.20
1035.61	1065.90
1036.45	1059.10
1037.28	1038.20
1038.12	1033.10
1038.95	1023.20
1039.79	1014.70
1040.62	1003.00
1041.46	997.20
1042.29	991.30
1043.13	968.50
1043.96	965.90
1044.80	964.30
1045.63	960.60
1046.47	940.90
1047.30	929.80
1048.13	917.20
1048.97	911.70
1049.80	900.40
1050.63	888.30
1051.47	878.00
1052.30	867.20
1053.13	858.30
1053.97	850.30
1054.80	836.00
1055.63	826.60
1056.46	819.50
1057.29	814.60
1058.13	811.90
1058.96	791.40
1059.79	784.80
1060.62	778.50
1061.45	773.60
1062.28	769.30
1063.12	762.70
1063.95	762.90
1064.78	747.00
1065.61	746.30
1066.44	744.90
1067.27	746.10
1068.10	739.20
1068.93	732.30
1069.76	723.50
1070.59	723.60
1071.42	722.20
1072.25	722.40
1073.08	722.00
1073.91	716.30
1074.74	710.10
1075.57	709.00
1076.40	715.10
1077.22	703.40
1078.05	704.90
1078.88	708.00
1079.71	707.50
1080.54	700.00
1081.37	701.10
1082.19	701.90
1083.02	700.80
1083.85	696.10
1084.68	696.10
1085.50	704.40
1086.33	692.60
1087.16	689.00
1087.98	689.30
1088.81	691.80
1089.64	695.30
1090.46	699.90
1091.29	695.30
1092.12	690.70
1092.94	696.20
1093.77	696.50
1094.59	698.70
1095.42	700.10
1096.25	696.60
1097.07	690.00
1097.90	695.60
1098.72	689.20
1099.13	686.90
>>>>>End Processed Spectral Data<<<<<