File: assets/data/P03/xps/7B0116_2.asc
Full

C1s
1
295.0000
-0.1000
250
775.0001
793.0001
820.0001
802.0001
845.0001
772.0001
839.0001
836.0001
875.0001
851.0001
796.0001
806.0001
858.0001
785.0001
789.0001
830.0001
862.0001
778.0001
824.0001
785.0001
810.0001
782.0001
803.0001
837.0001
811.0001
852.0001
800.0001
852.0001
836.0001
762.0001
761.0001
815.0001
748.0001
799.0001
787.0001
821.0001
838.0001
852.0001
786.0001
815.0001
769.0001
788.0001
759.0001
756.0001
793.0001
769.0001
774.0001
784.0001
826.0001
770.0001
784.0001
824.0001
758.0001
807.0001
806.0001
791.0001
812.0001
781.0001
819.0001
828.0001
860.0001
836.0001
818.0001
819.0001
761.0001
788.0001
827.0001
823.0001
798.0001
761.0001
810.0001
771.0001
806.0001
805.0001
746.0001
836.0001
808.0001
856.0001
880.0001
762.0001
798.0001
832.0001
904.0001
827.0001
871.0001
795.0001
810.0001
820.0001
838.0001
872.0001
811.0001
846.0001
801.0001
835.0001
786.0001
833.0001
767.0001
843.0001
741.0001
795.0001
796.0001
831.0001
806.0001
759.0001
872.0001
808.0001
726.0001
831.0001
772.0001
813.0001
795.0001
778.0001
809.0001
791.0001
836.0001
759.0001
780.0001
797.0001
842.0001
855.0001
885.0001
908.0001
890.0001
940.0001
910.0001
973.0001
1039
988.0001
965.0001
991.0001
1038
1003
1022
1034
1065
955.0001
1011
954.0001
976.0001
957.0001
994.0001
1011
1003
1026
1005
1070
1105
1162
1156
1224
1242
1356
1315
1364
1439
1520
1651
1725
1886
1996
2152
2329
2517
2688
2817
2887
2773
2688
2513
2332
2180
1938
1716
1443
1269
1214
1072
888.0001
917.0001
896.0001
873.0001
805.0001
756.0001
775.0001
794.0001
812.0001
778.0001
767.0001
764.0001
732.0001
806.0001
757.0001
783.0001
695.0001
737.0001
744.0001
714.0001
768.0001
763.0001
761.0001
777.0001
760.0001
747.0001
746.0001
771.0001
740.0001
767.0001
765.0001
754.0001
749.0001
735.0001
767.0001
783.0001
783.0001
789.0001
744.0001
695.0001
739.0001
770.0001
755.0001
715.0001
740.0001
709.0001
743.0001
748.0001
781.0001
756.0001
757.0001
712.0001
704.0001
736.0001
729.0001
709.0001
769.0001
747.0001
755.0001
732.0001
730.0001
745.0001
729.0001
743.0001
756.0001
785.0001
697.0001
752.0001
758.0001
730.0001
749.0001
735.0001
796.0001

Full

O1s
1
535.0000
-0.1000
200
2866
2894
2876
2902
2864
2776
2836
2682
2822
2736
2728
2688
2742
2760
2664
2742
2638
2692
2654
2716
2580
2736
2652
2814
2734
2784
2628
2560
2798
2692
2804
2740
2662
2678
2626
2660
2658
2658
2822
2802
2818
2578
2744
2750
2792
2708
2770
2768
2694
2598
2620
2678
2592
2774
2780
2830
2766
2698
2578
2584
2758
2554
2714
2542
2564
2760
2706
2674
2674
2668
2670
2664
2840
2606
2884
2946
2944
2926
3070
2992
3200
3302
3440
3562
3554
3612
3780
3846
4074
4110
4212
4516
4774
5044
5212
5522
5676
5920
6296
6416
6596
6976
7058
7500
7652
8028
8334
9040
9372
10406
11082
12280
12694
13516
14202
13566
13486
12802
11788
10534
8992
7708
6694
5858
4630
4166
3656
3172
2888
2730
2562
2462
2574
2412
2244
2214
2200
2220
2198
2238
2260
2210
2206
2234
2230
2172
2146
2170
2128
2120
2180
2184
2290
2122
2118
2062
2242
2142
2020
2134
2100
2180
2086
2290
2156
2096
2298
2250
2198
2066
2144
2086
2186
2176
2144
2208
2184
2048
2238
2194
2126
2244
2202
2270
2210
2214
2244
2206
2098
2166
2204
2156
2120
2112
2216
2290
2124
2190
2222
2200

Full

Fe2p
1
735.0000
-0.1000
400
5693.67
5662.67
5629
5642
5622.67
5633
5698.67
5679.67
5678
5646
5634.33
5593
5634.33
5554.67
5541
5646
5577.33
5520.33
5559.67
5492
5561
5542.67
5600.33
5590.33
5579.33
5579.33
5594.33
5550.33
5543.67
5567.33
5541.33
5557.33
5559
5414.67
5562.33
5644
5552.33
5601.67
5620.33
5588
5726
5494
5562.67
5530.67
5696.67
5575.67
5646
5604.67
5604
5702.67
5626.33
5690.67
5651
5605.33
5652.33
5691
5749
5672.33
5714
5693.67
5752
5715
5723
5684.33
5692.67
5788
5781.33
5741.33
5751.33
5798.33
5766.67
5782.67
5789.67
5821.67
5820.67
5879
5795
5880.33
5864
5907.33
5913.33
5827
5869.33
5930
5836
5833.33
5787
5874.33
5914.33
5860
5877
5830
5825.33
5748.33
5817.33
5821.33
5784
5807.33
5773.67
5763.33
5716
5728.67
5706.67
5715
5746.33
5733.67
5708.67
5756.67
5652.67
5635
5621.33
5623.33
5711.33
5697.67
5705.33
5675
5631.33
5716.33
5688.67
5725
5746.33
5661.67
5615.33
5698.33
5706
5726.67
5784.33
5756
5727.33
5883.67
5803.67
5765
5840
5720
5696
5752.33
5916
5845
5900.33
5950
5993.33
6097
5999.67
6098
6121.67
6155
6069.67
6221.33
6128
6219
6120.67
6290
6354.67
6244.33
6382.67
6379
6375
6448.33
6322.67
6485.67
6428.33
6485.33
6528.33
6500.33
6527.33
6641.67
6605
6570
6602.33
6591
6647.67
6561.67
6507
6519.33
6487.33
6518.33
6347.67
6458
6364.67
6328.33
6222.67
6183
6237.33
6041
5997
5930
5813.33
5839
5724.67
5552.67
5532.67
5464.33
5412.67
5399.67
5357
5396.67
5410.67
5292.67
5436.33
5315
5417.67
5334
5356.67
5418.33
5383
5367
5404
5411.67
5348.33
5472
5480.33
5442
5545.33
5508
5514.67
5536.67
5501.67
5498.67
5619
5582.33
5653.33
5604.67
5627
5554.33
5685.33
5718
5726
5681.33
5692.67
5763.67
5769.67
5760
5802.33
5869.67
5746
5807.33
5768.33
5807.67
5850
5894
5891.67
5959.33
5969.67
5977.67
6034.33
6072.67
6132
6106
6176
6279.67
6287.33
6250.33
6332.33
6294.67
6394
6361.33
6334.67
6379.33
6317.67
6274
6301.33
6249.33
6230.67
6209.33
6202.33
6132
6114
6078.67
6148.67
6028
6048
6001.67
6024.67
6015
5986.33
5964.67
6050.33
5946.33
6101.67
6110
6057.33
6109
6136
6264.33
6157.33
6299.33
6192.33
6241
6263.67
6382.67
6338.67
6512.67
6563.33
6569.33
6535
6700
6637
6834.33
6826.33
6953
6969.67
6989
7107.33
7092
7078.67
7187.33
7004.67
7074.67
6983.33
6881
6854
6797.33
6678.33
6568.67
6410.33
6260.67
6094.33
5861
5662.33
5498.33
5159.67
4849.33
4631
4356
4139.33
3894.67
3807.67
3728
3562.67
3607.33
3418.33
3478.67
3437.67
3416
3282.33
3347
3400
3354.33
3351
3343.33
3301.67
3315.67
3319.67
3318.33
3265
3219.67
3351.67
3206.33
3246.67
3248.67
3265.67
3272.33
3231.67
3219.33
3214.67
3253
3232
3280
3245.33
3295
3258
3247.33
3244
3254.67
3189
3247
3172.67
3232.67
3228.33
3216.33
3153.67
3217
3276.33
3251.67
3255.33
3226.33
3222.33
3276
3297.33
3199.67
3196.67
3222
3153.67
3189
3256.33
3170
3194
3190
3271.67
3206
3285
3211.67
3215
3236.33
3120
3134
3248.67
3151
3223
3185.67

Full

Zn2p3
1
1050
-0.1000
450
6961
6908
6982
6849
6870
7024
6906
6849
6932
6897
6906
6808
6897
6922
7001
7189
6917
7170
7094
7208
7198
7033
7170
7087
7094
7325
7170
7286
7107
7289
7294
7328
7212
7024
7188
7079
7182
6911
7141
7030
6932
7102
7030
6982
7031
7095
6973
7067
6910
6937
6957
6806
6862
6876
6930
6747
6787
6740
6826
6740
6740
6750
6670
6747
6953
6795
6718
6703
6744
6710
6701
6717
6677
6711
6748
6824
6833
6868
6857
6755
6672
6595
6648
6607
6693
6591
6799
6763
6777
6643
6815
6854
6736
6530
6895
6807
6867
6740
6857
6939
6762
6983
6901
7006
6929
7077
7029
7239
7184
7404
7267
7569
7600
7745
7738
7944
7910
8003
8004
8105
8133
8090
7967
7937
7850
7768
7731
7413
7280
7158
7159
6855
6935
7015
6896
6817
6951
6891
6799
6723
6781
6754
6842
6699
6498
6759
6619
6740
6802
6711
6763
6734
6714
6571
6586
6581
6710
6804
6611
6801
6655
6749
6678
6573
6678
6779
6720
6641
6743
6762
6804
6719
6679
6788
6676
6654
6693
6811
6712
6468
6794
6691
6602
6735
6790
6753
6695
6742
6675
6762
6726
6742
6705
6688
6762
6607
6847
6688
6683
6751
6680
6610
6748
6845
6664
6773
6571
6772
6643
6712
6607
6763
6775
6759
6679
6685
6761
6615
6720
6779
6567
6735
6726
6664
6838
6750
6735
6620
6795
6656
6837
6710
6821
6820
6818
6659
6753
6811
6849
6719
6601
6826
6833
6949
6821
6716
6649
6751
6635
6768
6583
6556
6647
6776
6717
6599
6623
6718
6673
6665
6762
6606
6655
6706
6934
6749
6585
6703
6641
6645
6841
6592
6804
6654
6656
6623
6728
6604
6751
6642
6703
6613
6792
6750
6725
6599
6620
6810
6634
6607
6628
6670
6848
6715
6735
6636
6608
6838
6638
6736
6752
6848
6590
6601
6778
6608
6782
6638
6619
6794
6581
6709
6664
6773
6548
6611
6791
6745
6798
6732
6746
6880
6893
6943
6775
6796
6728
6895
6870
6798
6814
6972
6983
7101
7195
7199
7334
7375
7592
7821
8007
8289
8247
8699
8894
9148
9216
9539
9566
9694
9747
9644
9730
9586
9280
8976
8622
8404
8134
7843
7682
7569
7297
7186
7019
6964
6974
6852
7026
6815
6886
6720
6854
6724
6743
6774
6873
6871
6827
6794
6788
6609
6772
6795
6691
6724
6692
6674
6793
6715
6633
6940
6750
6655
6889
6706
6824
6551
6621
6756
6704
6747
6686
6726
6754
6714
6737
6926
6699
6695
6928
6683
6779
6561
6630
6781
6751
6721
6819
6762
6764
6680
6662
6733
6606
6518
6782
6828
6743
6712
6784
6718
6782
6762
7005
6638
6689
6813
6747
6885
6732
6865
6826
6728
6900
6895
6781
6761
6740
6586

Full

Ag3d
1
375.0000
-0.1000
200
706.0000
674.0000
794.0000
708.0000
750.0000
684.0000
730.0000
766.0000
730.0000
752.0000
784.0000
686.0000
728.0000
702.0000
744.0000
722.0000
750.0000
710.0000
728.0000
704.0000
690.0000
686.0000
748.0000
704.0000
726.0000
688.0000
746.0000
726.0000
790.0000
690.0000
714.0000
768.0000
708.0000
750.0000
686.0000
662.0000
770.0000
756.0000
754.0000
802.0000
736.0000
734.0000
766.0000
770.0000
688.0000
720.0000
758.0000
688.0000
690.0000
830.0000
772.0000
694.0000
722.0000
708.0000
728.0000
826.0000
726.0000
774.0000
796.0000
816.0000
778.0000
912.0000
870.0000
978.0000
1012
1012
1122
1132
1262
1340
1266
1320
1344
1228
1148
1082
1080
1004
946.0000
962.0000
884.0000
796.0000
818.0000
796.0000
820.0000
752.0000
722.0000
734.0000
710.0000
820.0000
770.0000
690.0000
716.0000
700.0000
696.0000
748.0000
650.0000
642.0000
642.0000
740.0000
666.0000
620.0000
754.0000
656.0000
718.0000
724.0000
748.0000
736.0000
654.0000
644.0000
722.0000
714.0000
718.0000
746.0000
750.0000
670.0000
762.0000
758.0000
732.0000
846.0000
840.0000
920.0000
1054
954.0000
1128
1228
1308
1496
1410
1518
1448
1508
1524
1418
1384
1266
1244
1204
1088
994.0000
860.0000
888.0000
858.0000
820.0000
766.0000
730.0000
726.0000
810.0000
648.0000
702.0000
734.0000
786.0000
648.0000
654.0000
700.0000
644.0000
664.0000
674.0000
648.0000
688.0000
704.0000
636.0000
704.0000
662.0000
650.0000
710.0000
708.0000
688.0000
668.0000
690.0000
614.0000
670.0000
696.0000
730.0000
696.0000
692.0000
650.0000
714.0000
608.0000
746.0000
720.0000
768.0000
760.0000
716.0000
674.0000
624.0000
680.0000
726.0000
714.0000
624.0000
728.0000
690.0000
636.0000
694.0000
690.0000
708.0000
696.0000
650.0000
772.0000
690.0000

Full

Sn3d5
1
500.0000
-0.1000
200
1980
2008
2048
2002
1990
2030
2096
2076
2086
2062
1942
1966
2070
1932
2020
1916
2040
1936
1962
2000
1828
1868
1982
1962
1844
1844
1986
1804
1872
1800
1834
1912
1840
1924
1966
1840
1836
1914
1758
1874
1734
1894
1850
1858
1830
1726
1766
1740
1696
1812
1758
1772
1764
1690
1758
1818
1800
1704
1774
1784
1704
1828
1842
1790
1780
1764
1728
1846
1790
1918
1850
1914
1946
1808
1860
1826
1920
1916
1892
1884
1882
1904
1926
1866
1910
1954
1886
1900
1922
1760
1970
1904
2002
1792
1946
1856
2038
2086
1826
2038
2100
2250
2326
2364
2538
2716
3170
3496
4166
4722
5260
6066
6606
7532
8148
8438
8862
8910
8876
8484
7678
7032
5972
5022
4628
3696
3096
2684
2492
2228
1924
1774
1530
1654
1472
1332
1388
1240
1282
1262
1230
1230
1190
1150
1148
1110
1094
1130
1146
1188
1154
980.0000
1084
1034
1076
1004
1016
1024
964.0000
1074
944.0000
924.0000
934.0000
1008
896.0000
1054
944.0000
1030
930.0000
994.0000
986.0000
990.0000
938.0000
982.0000
1038
1052
1098
1076
1078
1062
1166
1308
1180
1310
1472
1560
1806
2080
2224
2760
3180
3724
4404
4782
6082
7080
7946
9468
10208
10874

Full

Si2p
1
105.0000
-0.1000
150
764.0000
834.0000
864.0000
874.0000
884.0000
892.0000
880.0000
844.0000
868.0000
824.0000
880.0000
858.0000
900.0000
922.0000
818.0000
900.0000
938.0000
870.0000
808.0000
878.0000
828.0000
862.0000
890.0000
814.0000
884.0000
938.0000
792.0000
808.0000
852.0000
898.0000
886.0000
870.0000
824.0000
886.0000
838.0000
872.0000
870.0000
896.0000
864.0000
908.0000
870.0000
854.0000
802.0000
866.0000
842.0000
814.0000
844.0000
860.0000
910.0000
832.0000
918.0000
830.0000
816.0000
848.0000
912.0000
890.0000
866.0000
866.0000
888.0000
884.0000
858.0000
868.0000
858.0000
864.0000
892.0000
868.0000
914.0000
834.0000
890.0000
934.0000
908.0000
918.0000
890.0000
926.0000
928.0000
962.0000
862.0000
936.0000
864.0000
870.0000
922.0000
952.0000
920.0000
854.0000
926.0000
880.0000
982.0000
876.0000
988.0000
974.0000
918.0000
958.0000
950.0000
856.0000
1002
1018
1034
910.0000
998.0000
952.0000
1016
956.0000
1014
976.0000
980.0000
936.0000
904.0000
922.0000
976.0000
1016
990.0000
952.0000
976.0000
992.0000
934.0000
964.0000
996.0000
1024
958.0000
974.0000
828.0000
1040
918.0000
892.0000
1034
904.0000
966.0000
906.0000
866.0000
896.0000
986.0000
872.0000
1012
912.0000
902.0000
932.0000
944.0000
1000
928.0000
936.0000
850.0000
924.0000
874.0000
896.0000
960.0000
1064
904.0000
902.0000
874.0000
886.0000

Full

Fe3p
1
60.0000
-0.1000
200
565.0000
605.0000
622.0000
615.0000
594.0000
607.0000
596.0000
623.0000
651.0000
615.0000
680.0000
628.0000
594.0000
625.0000
639.0000
684.0000
642.0000
653.0000
688.0000
657.0000
665.0000
621.0000
645.0000
625.0000
671.0000
644.0000
667.0000
692.0000
662.0000
638.0000
653.0000
636.0000
688.0000
665.0000
605.0000
684.0000
647.0000
621.0000
658.0000
657.0000
638.0000
661.0000
611.0000
596.0000
639.0000
621.0000
619.0000
599.0000
565.0000
611.0000
659.0000
628.0000
632.0000
624.0000
616.0000
606.0000
668.0000
603.0000
591.0000
637.0000
631.0000
673.0000
673.0000
630.0000
599.0000
648.0000
707.0000
691.0000
672.0000
642.0000
651.0000
688.0000
679.0000
705.0000
706.0000
654.0000
718.0000
732.0000
721.0000
710.0000
776.0000
746.0000
760.0000
779.0000
893.0000
871.0000
820.0000
863.0000
871.0000
852.0000
935.0000
929.0000
998.0000
1010
1033
1078
1085
1186
1196
1173
1278
1267
1308
1339
1315
1326
1280
1367
1308
1258
1308
1237
1187
1124
1043
937.0000
932.0000
820.0000
779.0000
690.0000
691.0000
534.0000
587.0000
482.0000
493.0000
499.0000
432.0000
433.0000
406.0000
387.0000
390.0000
371.0000
450.0000
407.0000
373.0000
387.0000
391.0000
354.0000
370.0000
349.0000
404.0000
354.0000
402.0000
382.0000
358.0000
378.0000
362.0000
401.0000
362.0000
363.0000
386.0000
358.0000
386.0000
385.0000
335.0000
356.0000
379.0000
375.0000
351.0000
390.0000
343.0000
354.0000
353.0000
354.0000
362.0000
403.0000
393.0000
327.0000
345.0000
396.0000
376.0000
363.0000
360.0000
385.0000
348.0000
373.0000
381.0000
362.0000
396.0000
389.0000
403.0000
380.0000
394.0000
400.0000
367.0000
416.0000
380.0000
382.0000
395.0000
393.0000
363.0000
387.0000
353.0000
373.0000
378.0000
385.0000
386.0000
388.0000
396.0000
402.0000