File: assets/data/P03/xps/7B0301_4.asc
Full

C1s
1
290.0000
-0.1000
150
1303
1281
1365
1298
1288
1284
1287
1301
1232
1219
1262
1214
1224
1255
1275
1265
1191
1247
1257
1262
1206
1220
1278
1229
1240
1231
1283
1216
1178
1256
1236
1278
1125
1271
1157
1150
1131
1186
1171
1164
1147
1210
1151
1166
1205
1230
1154
1185
1163
1111
1103
1145
1162
1173
1142
1079
1170
1197
1213
1131
1212
1244
1238
1319
1256
1378
1460
1490
1550
1627
1642
1688
1744
1751
1891
1880
1826
1803
1810
1774
1754
1669
1754
1648
1672
1689
1621
1636
1598
1678
1685
1741
1766
1927
1887
2014
2096
2188
2292
2379
2606
2847
3176
3739
4151
4821
5642
6359
7266
8096
8823
9163
9646
9582
8958
8362
7771
6774
5566
4510
3787
3043
2502
2070
1790
1535
1369
1301
1267
1281
1138
1134
1225
1158
1081
1106
1101
1068
1080
1033
1015
1075
1033
1082
1077
1085
1077
1053
1115
1092

Full

O1s
1
535.0000
-0.1000
150
2646
2686
2678
2658
2656
2673
2653
2701
2649
2680
2616
2684
2619
2627
2613
2605
2536
2584
2593
2594
2502
2539
2650
2531
2517
2617
2467
2513
2523
2547
2508
2450
2467
2470
2454
2488
2473
2527
2536
2481
2488
2478
2468
2536
2498
2484
2555
2484
2445
2468
2480
2582
2597
2594
2540
2581
2565
2554
2522
2546
2504
2577
2453
2534
2573
2541
2685
2703
2847
2887
2986
2989
3107
3213
3266
3396
3400
3774
3775
4019
4134
4338
4688
4887
5131
5383
5853
6009
6372
6599
6923
6958
7020
7239
7122
6936
6997
6578
6444
6442
6163
6014
6030
6227
6315
6679
6965
7279
7811
8189
8523
8600
8709
8282
7662
7269
6750
5837
5219
4603
4119
3520
3098
2951
2694
2533
2395
2405
2282
2334
2203
2170
2269
2159
2180
2221
2117
2208
2128
2162
2126
2128
2157
2176
2101
2269
2127
2177
2110
2137

Full

Fe2p
1
735.0000
-0.1000
400
6134
6085
6036.33
6054.67
5954.33
6005.33
5941.33
6066.67
5990.33
5996.33
6076
6024
6082.33
6017.33
5878.67
6061.67
5955.33
5999.33
6016.67
6038
5945.67
5997
5948
5977.67
6016
5933.33
5969.67
6004.33
5923.33
5982
5957.67
5942
6002.67
5948.67
5984
5908.33
5959
5910
5877
5964.33
5998.33
6004.67
5960
6003.33
6046.67
6057.67
5864
5990
6004.33
5996.67
6004.67
6008.67
5969.67
5943.67
6021.67
5944
5956.33
6019.33
5962.33
6019.33
5970.33
5975.33
5921.33
6072
6005.33
5987
5992.33
5961.67
6036
5992.33
5986.67
5989.67
6008.33
6012
6014
5999.67
6016.67
6014.33
6084.67
5981.67
6057.33
5895
6011
6042.33
5982
6029.33
5894.33
5932.33
5955.67
5936
5997
5887
6027.33
5946
6049
5878
5878
5829.33
5847.33
5899.67
5967
5889.33
5920.67
5774.33
5879.33
5835
5777.33
5825.33
5823.33
5730.67
5833.33
5843.33
5830
5884
5845.67
5760.33
5736.67
5836.33
5880.33
5831
5939.67
5809.33
5909.67
5844.33
5863.33
5909
5811
5858.67
5827
5917.33
5911.33
5903.67
5967.33
5943.67
5872.67
5971.67
5925
5971
5971.33
6011.67
6034
6043.67
6017.33
6033
5963.33
6089.67
6153.67
6150.67
6170.33
6155
6282.33
6197
6179.67
6198.33
6203.67
6283.33
6320.33
6311
6339.33
6333.33
6341.33
6260.33
6344
6288
6285.67
6351.33
6308.33
6315.33
6226.67
6236.33
6248.33
6202.67
6197.33
6145.33
6168
6100.33
6060.33
5975
6012.33
6050
5986.67
5852
5922.33
5791.33
5751.33
5680.67
5738.67
5651.67
5693.67
5592
5566.33
5581.67
5542.67
5550
5579.33
5562.33
5490.67
5618.67
5519.67
5585.33
5532.33
5562
5562.33
5551.33
5541
5581.33
5493.67
5557.67
5596
5597
5571
5510.67
5557.67
5540.33
5636.67
5669.67
5575.67
5600.67
5632.33
5564.33
5578.33
5567
5644.67
5596.67
5516
5613.33
5523.33
5561
5527.67
5537.67
5573
5501.33
5509.67
5506.33
5426.33
5404.67
5467
5436.67
5445
5370
5371.67
5404.67
5298
5329.67
5363
5326
5388.67
5309
5358.33
5357
5320.33
5355
5282.67
5252.67
5273.33
5321.33
5281.67
5311
5340.67
5355
5372.67
5376.67
5420.67
5383
5501.67
5427
5507.67
5440.67
5508.67
5491.33
5579
5572
5597.67
5607.33
5569
5697.67
5790.33
5803.33
5772.33
5741.67
5755.33
5918.67
5856
5959.33
6026.67
5997.67
6060.67
6123.33
6102.33
6206
6258.33
6256.33
6289.33
6370.67
6447.33
6440.67
6506.33
6414.67
6480.33
6424.67
6466
6573.33
6520.67
6528
6503.67
6466.67
6477.33
6409.33
6300.67
6215.33
6095
5960.67
5908
5746.33
5663.33
5422.33
5393
5215.33
5058
4938.33
4795.33
4766
4618.33
4703.33
4472.67
4446
4463
4370.33
4388.67
4432.67
4446
4292.33
4370
4243.33
4277
4281
4284.67
4265
4286.33
4239
4225.33
4244.67
4193
4281
4157
4253.67
4217.33
4212.67
4246
4227.67
4173.67
4254.33
4228
4229.33
4277.67
4252.33
4181.33
4248.33
4207
4269.67
4269
4253
4172
4223
4175.33
4205
4201.67
4258.67
4149.67
4245
4197.67
4198.67
4230.33
4213.67
4186.33
4317.33
4203.33
4235.67
4217.33
4211.67
4299.67
4254
4217.67
4216.67
4133.67
4225.67
4204.33
4256.33
4234.33
4183.67
4261.67
4241.33
4170
4171
4154.33
4143
4197
4107.33
4242.67
4187.33

Full

Zn2p3
1
1050
-0.1000
450
8552
8590
8468
8549
8513
8542
8537
8561
8546
8314
8421
8469
8503
8571
8406
8477
8548
8534
8479
8531
8401
8369
8598
8510
8567
8522
8400
8510
8436
8410
8392
8303
8516
8482
8451
8543
8381
8558
8347
8572
8547
8541
8563
8463
8500
8521
8594
8494
8314
8430
8430
8429
8462
8412
8410
8425
8408
8584
8384
8546
8531
8538
8603
8709
8585
8449
8412
8500
8404
8248
8388
8423
8413
8516
8439
8592
8520
8514
8525
8690
8522
8586
8627
8547
8555
8493
8603
8668
8574
8679
8798
8622
8729
8540
8791
8602
8879
9080
9004
9156
9252
9291
9410
9568
9817
9835
9926
10176
10315
10402
10511
10440
10539
10402
10569
10487
10542
10331
10252
10145
10065
9855
9515
9601
9317
9099
9132
8916
8956
9022
9030
8914
8657
8827
8767
8630
8514
8572
8659
8618
8523
8531
8781
8347
8603
8472
8474
8623
8601
8588
8502
8674
8692
8327
8493
8305
8654
8422
8554
8566
8434
8461
8428
8339
8506
8493
8524
8354
8468
8486
8349
8458
8603
8382
8259
8510
8410
8300
8553
8475
8558
8323
8369
8472
8457
8482
8387
8413
8337
8516
8486
8365
8346
8312
8458
8432
8292
8271
8433
8351
8355
8386
8456
8552
8389
8367
8326
8205
8267
8261
8434
8391
8206
8393
8389
8319
8409
8503
8255
8390
8399
8333
8238
8296
8275
8225
8326
8291
8497
8418
8436
8247
8200
8409
8246
8158
8264
8204
8354
8243
8228
8209
8194
8199
8252
8189
8194
8362
8206
8172
8095
8360
8232
8289
8337
8319
8273
8237
8245
8195
8263
8189
8219
8254
8026
8231
8206
8195
8221
8113
8004
8218
8080
8196
8310
8059
8014
7995
8125
8067
8156
8090
8123
8255
8005
8135
8200
8086
8227
8330
8260
8227
8329
8095
8188
8079
7998
8174
8207
8242
8200
8148
8067
7975
8268
8203
8118
8413
8253
8241
8189
8174
8296
8299
8385
8202
8259
8198
8131
8363
8372
8552
8530
8527
8573
8550
8631
9004
9020
9256
9210
9487
9767
10056
10412
10813
10888
11231
11564
11828
12064
12317
12550
12378
12426
12567
12227
12059
11938
11741
11555
11091
10899
10216
10099
9713
9555
9258
9104
8999
8699
8875
8558
8478
8460
8444
8282
8222
8337
8427
8256
8234
8228
8278
8275
8191
8155
8185
8189
8182
8298
8349
8223
8134
8297
8274
8272
8389
8205
8142
8168
8196
8077
8241
8229
8222
8217
8234
8195
8136
8263
8270
8204
8140
8102
8116
8134
8085
8097
8245
8216
8276
8329
8297
8075
8088
8084
8166
8094
8079
8253
8186
8032
8065
8234
8122
8039
8028
8157
8106
8182
8102
8036
8061
8026
8203
7961
8141
8307
8213
8115
8133
8081
8021
7937
8227
7940
8045
8090
8239

Full

Ag3d
1
375.0000
-0.1000
200
1524
1472
1530
1400
1518
1478
1472
1424
1478
1494
1520
1496
1448
1550
1514
1534
1526
1502
1418
1648
1418
1460
1482
1496
1410
1428
1504
1442
1386
1462
1510
1388
1444
1456
1354
1472
1446
1392
1508
1382
1398
1382
1514
1468
1472
1462
1498
1376
1444
1360
1356
1472
1450
1448
1506
1634
1648
1554
1718
2046
2140
2628
2886
3408
4074
4944
5820
6310
6700
6898
6858
6380
5460
4844
3946
3348
2858
2382
2146
1832
1654
1806
1460
1546
1432
1412
1436
1376
1438
1414
1368
1396
1330
1392
1380
1194
1360
1294
1278
1406
1368
1396
1318
1324
1354
1254
1182
1314
1300
1368
1318
1308
1370
1356
1516
1540
1624
1742
1890
2018
2386
2864
3618
4328
5290
6262
7326
8084
8886
9186
9234
8112
7496
6366
5186
4154
3524
2914
2414
2032
1832
1708
1644
1488
1384
1370
1390
1266
1172
1218
1316
1248
1240
1208
1152
1196
1162
1240
1224
1154
1162
1204
1132
1134
1188
1096
1090
1100
1180
1184
1112
1162
1098
1088
1144
1050
1140
1152
1034
1134
1148
1152
1066
1100
1134
1140
1156
1126
1088
1108
1232
1068
1166
1058
1162
1136
1032
1128
1052
1132

Full

Sn3d5
1
510.0000
-0.1000
300
2033
2017
2019
2002
1965
2079
2035
2041
2051
1998
2063
2082
1966
1974
1978
2043
1957
2047
2022
1991
2034
1996
2040
2021
1945
1899
2019
2033
2007
1931
2054
2014
2056
1995
2056
1968
2026
1957
1962
2028
1928
2027
1987
2071
2047
1982
1986
2026
2001
1932
1974
2044
1933
1998
1997
1953
2007
1926
1957
2012
1994
2001
2039
1966
1936
2002
2024
1982
1958
2064
1953
2010
1960
2051
2015
1938
1962
1943
1962
1914
1909
1983
1919
1922
1985
1876
1987
1973
1968
2013
2003
1931
1986
1906
1938
1992
1977
1939
2001
2043
1965
1993
1919
1985
2046
1981
2005
2003
1920
1924
1973
1982
1945
2071
2029
2032
1932
1944
2031
1966
2049
1933
2000
1942
2017
1981
2001
1911
1989
1948
2035
2022
1956
1954
2050
2052
2043
1995
2042
2129
1988
2055
2025
2021
1985
2054
2005
1977
2029
1996
2151
2138
2136
2113
2106
2221
2168
2228
2299
2172
2313
2359
2354
2296
2428
2454
2377
2386
2412
2403
2531
2543
2459
2545
2526
2530
2617
2661
2607
2601
2569
2556
2666
2695
2662
2583
2665
2633
2691
2597
2598
2644
2588
2424
2558
2534
2534
2469
2516
2413
2407
2258
2417
2322
2301
2281
2271
2284
2243
2326
2359
2269
2356
2217
2256
2195
2133
2108
2085
2053
2003
2029
1963
1997
1994
1902
1942
1857
1856
1802
1729
1745
1740
1677
1753
1684
1678
1699
1563
1652
1628
1585
1645
1660
1662
1634
1616
1637
1588
1558
1610
1556
1541
1662
1578
1631
1583
1602
1629
1580
1576
1496
1587
1586
1618
1642
1566
1583
1558
1569
1539
1541
1613
1528
1598
1608
1675
1618
1622
1625
1606
1613
1627
1572
1685
1617
1687
1743
1646
1720
1795
1864
1867
1835
1880
1948
1939
1925
1931
1850

Full

Si2p
1
110.0000
-0.1000
200
1088.57
1057.14
1104.29
1092.86
1100
1112.86
1158.57
1087.14
1102.86
1062.86
1032.86
1092.86
1034.29
1138.57
1071.43
1055.71
1147.14
1132.86
1044.29
984.2857
1067.14
1112.86
1151.43
1077.14
1111.43
1108.57
1098.57
1140
1075.71
1082.86
1141.43
1067.14
1150
1141.43
1118.57
1101.43
1115.71
988.5715
1162.86
1092.86
1085.71
1134.29
1090
1107.14
1107.14
1098.57
998.5715
1038.57
1091.43
1037.14
1128.57
1101.43
1031.43
1158.57
1070
1177.14
1111.43
1042.86
1025.71
1011.43
1045.71
1065.71
1094.29
1028.57
1060
1025.71
1082.86
1072.86
1081.43
1030
1020
985.7143
1110
1042.86
1072.86
1057.14
1032.86
1061.43
1082.86
1092.86
1052.86
1071.43
1071.43
1057.14
1008.57
1054.29
1074.29
1035.71
1094.29
1104.29
1004.29
1021.43
1062.86
1057.14
1048.57
1042.86
998.5715
1038.57
1050
1008.57
1097.14
1034.29
958.5715
1058.57
1044.29
1011.43
984.2857
1001.43
952.8572
938.5715
1007.14
1000
1032.86
1014.29
1010
1040
1025.71
1004.29
992.8572
1004.29
1032.86
957.1429
1040
1064.29
990.0000
1025.71
991.4286
1041.43
1018.57
1035.71
1007.14
1110
1055.71
1065.71
1124.29
1045.71
1088.57
1080
1042.86
1085.71
1102.86
1132.86
1008.57
1151.43
1100
1075.71
1102.86
1092.86
1061.43
1061.43
988.5715
1121.43
1050
1047.14
1084.29
1094.29
1034.29
1071.43
1054.29
1034.29
988.5715
1108.57
1042.86
1037.14
1101.43
1037.14
1112.86
1070
1061.43
1054.29
1012.86
1092.86
1015.71
1060
1035.71
1032.86
1024.29
1010
1058.57
997.1429
1044.29
1028.57
1022.86
1035.71
1002.86
1035.71
1031.43
1025.71
1045.71
960.0000
1051.43
1054.29
977.1429
1014.29
1147.14
1024.29
1064.29
1060
1081.43
1037.14

Full

Fe3p
1
65.0000
-0.1000
200
722.0000
683.0000
737.0000
692.0000
694.0000
690.0000
679.0000
710.0000
716.0000
708.0000
729.0000
687.0000
746.0000
753.0000
771.0000
765.0000
729.0000
739.0000
755.0000
735.0000
735.0000
713.0000
759.0000
742.0000
716.0000
788.0000
736.0000
750.0000
791.0000
786.0000
746.0000
754.0000
786.0000
743.0000
750.0000
761.0000
773.0000
798.0000
710.0000
721.0000
729.0000
733.0000
758.0000
732.0000
743.0000
737.0000
690.0000
706.0000
718.0000
674.0000
724.0000
757.0000
738.0000
659.0000
716.0000
723.0000
710.0000
689.0000
711.0000
780.0000
679.0000
694.0000
714.0000
703.0000
754.0000
721.0000
703.0000
705.0000
743.0000
753.0000
705.0000
679.0000
686.0000
716.0000
703.0000
740.0000
725.0000
732.0000
720.0000
717.0000
773.0000
698.0000
716.0000
674.0000
727.0000
722.0000
708.0000
700.0000
664.0000
724.0000
703.0000
715.0000
631.0000
696.0000
710.0000
663.0000
720.0000
704.0000
694.0000
715.0000
705.0000
757.0000
675.0000
726.0000
712.0000
713.0000
725.0000
703.0000
689.0000
720.0000
768.0000
707.0000
712.0000
708.0000
747.0000
755.0000
700.0000
759.0000
732.0000
807.0000
782.0000
766.0000
747.0000
825.0000
840.0000
775.0000
832.0000
833.0000
850.0000
908.0000
859.0000
845.0000
918.0000
930.0000
878.0000
975.0000
937.0000
936.0000
980.0000
1031
1053
1076
1094
1171
1177
1136
1184
1285
1349
1271
1272
1278
1277
1353
1254
1259
1232
1147
1123
1079
1019
951.0000
927.0000
824.0000
828.0000
776.0000
698.0000
630.0000
620.0000
592.0000
533.0000
537.0000
542.0000
493.0000
483.0000
459.0000
453.0000
476.0000
444.0000
477.0000
391.0000
382.0000
384.0000
402.0000
423.0000
379.0000
368.0000
363.0000
393.0000
373.0000
404.0000
375.0000
347.0000
380.0000
346.0000
405.0000
364.0000
377.0000
399.0000
398.0000

Full

Fe2p3
1
90.0000
-0.1000
150
1111
1006
1026
1109
1066
1105
1092
1063
1061
1096
1133
1044
1106
1092
1191
1141
1127
1160
1148
1207
1206
1257
1210
1262
1236
1187
1188
1241
1213
1241
1317
1283
1255
1268
1299
1295
1313
1307
1312
1300
1300
1351
1278
1384
1377
1322
1294
1313
1357
1339
1363
1222
1347
1360
1350
1321
1322
1387
1325
1373
1325
1393
1336
1322
1392
1446
1404
1521
1504
1533
1484
1562
1576
1547
1569
1535
1545
1490
1613
1511
1485
1409
1376
1435
1321
1222
1245
1244
1136
1131
1151
1089
1048
1021
1013
973.0000
1007
939.0000
920.0000
950.0000
932.0000
869.0000
935.0000
823.0000
879.0000
845.0000
856.0000
898.0000
851.0000
891.0000
821.0000
865.0000
869.0000
851.0000
848.0000
835.0000
851.0000
810.0000
819.0000
841.0000
837.0000
812.0000
836.0000
793.0000
771.0000
761.0000
799.0000
820.0000
812.0000
798.0000
810.0000
819.0000
816.0000
813.0000
768.0000
771.0000
751.0000
783.0000
808.0000
869.0000
850.0000
812.0000
789.0000
849.0000
772.0000
788.0000
792.0000
813.0000
791.0000
777.0000