File: assets/data/P03/xps/7B0302_2.asc
Full

C1s
1
290.0000
-0.1000
150
1161
1171
1124
1242
1288
1184
1149
1231
1233
1135
1221
1202
1172
1158
1138
1142
1135
1074
1084
1088
1114
1043
1078
1051
1090
1088
1050
1054
1002
1018
1104
1057
1063
995.0000
1022
1043
998.0000
1022
993.0000
972.0000
1003
985.0000
986.0000
966.0000
991.0000
1001
956.0000
970.0000
938.0000
888.0000
920.0000
870.0000
893.0000
969.0000
914.0000
947.0000
965.0000
948.0000
914.0000
963.0000
944.0000
1023
955.0000
1013
1086
1100
1093
1113
1255
1314
1338
1356
1482
1523
1525
1576
1593
1515
1581
1501
1512
1572
1546
1451
1451
1485
1406
1414
1355
1318
1334
1414
1398
1424
1545
1533
1719
1716
2004
2098
2381
2560
2906
3345
3943
4625
5276
6241
7080
8302
9253
10390
11552
12318
12970
12996
12899
12470
11483
10263
8648
7092
5779
4539
3517
2729
2155
1831
1487
1309
1201
1125
1039
1039
989.0000
930.0000
925.0000
887.0000
902.0000
915.0000
871.0000
881.0000
885.0000
852.0000
902.0000
868.0000
877.0000
857.0000
863.0000
858.0000

Full

O1s
1
535.0000
-0.1000
150
1746
1682
1761
1643
1698
1656
1728
1727
1600
1677
1633
1670
1559
1618
1558
1657
1573
1624
1559
1579
1524
1626
1592
1553
1637
1561
1545
1534
1543
1531
1443
1526
1544
1522
1499
1510
1499
1516
1548
1517
1536
1534
1517
1576
1502
1533
1490
1510
1552
1499
1531
1541
1541
1551
1462
1507
1490
1543
1540
1548
1599
1552
1620
1621
1673
1588
1660
1665
1749
1813
1974
1960
2116
2086
2222
2326
2345
2402
2434
2613
2746
2753
2985
3080
3256
3436
3676
3880
3988
4291
4347
4554
4507
4570
4546
4529
4543
4438
4385
4109
3994
3934
3819
3658
3592
3471
3417
3307
3323
3436
3488
3813
4229
4686
5192
5776
6518
6989
7255
7432
7295
6688
6035
5262
4489
3712
3160
2540
2088
1874
1692
1500
1504
1311
1355
1322
1271
1225
1271
1336
1292
1217
1230
1286
1205
1227
1190
1234
1215
1193

Full

Fe2p
1
735.0000
-0.1000
400
4342
4360.33
4332.67
4320
4329
4290
4307.67
4249.67
4195.33
4292.33
4352
4237
4203.33
4207.67
4296
4233.33
4204
4232.67
4256.33
4239
4258
4154.33
4214
4173.67
4111
4117
4165.33
4235
4234.33
4182.67
4131.67
4190.33
4127.33
4164.33
4086.67
4229
4145
4168.33
4236.33
4173.67
4153.67
4158.33
4135.67
4130.33
4123.33
4171.67
4167.67
4179.33
4136.33
4225.67
4108.33
4158.33
4150.33
4206.33
4156.33
4132.67
4170.67
4186.67
4176.67
4153.33
4271
4147.67
4195.33
4186
4144.67
4228.33
4194
4191.33
4139.67
4178.67
4145.33
4180
4197.33
4181.67
4189.67
4146
4229.33
4171.33
4175
4189
4307
4253
4193.33
4214
4213.33
4218.67
4187.33
4221.67
4162
4246
4190.67
4171.67
4156
4162.33
4167
4146
4210
4130.67
4151
4019.67
4109.33
4112.33
4068.67
4036
4088.33
4061.33
4102.33
4103
4019
4016.33
4028.67
4031.67
4075
4016.67
4080
4027
4012
3995.33
4018.33
3980
4019.67
3991.33
3993.67
4050.33
3956.33
4011.67
3969.33
3959.67
4016.67
4004.67
4034
4027
4017
3972.33
4006.67
4058.33
4059.67
4140.33
4044
4021.33
4024.67
4085.67
4108
4097.67
4039.33
4135.33
4139.33
4145.33
4178.33
4196.67
4207
4212.67
4269.67
4241
4244
4206.67
4241.67
4308.33
4263.67
4324
4457
4357.33
4374.67
4318.33
4364
4409.33
4391.67
4487
4415.33
4408
4385
4471
4468
4409.33
4500
4448.33
4437.33
4459
4428
4344
4291.67
4291.33
4329.67
4279.67
4228.33
4268.67
4166
4195.33
4125.33
4084.67
4026
3927
3885.67
3792
3724
3737.67
3678.33
3637.67
3593.67
3541.33
3602.33
3578.67
3606
3557
3615.33
3537.67
3600.67
3550.67
3621.67
3554
3535.67
3642
3583
3636
3585
3566
3580.67
3601.67
3583
3622
3611
3620.33
3615
3603.67
3595
3618.67
3599.33
3642.33
3661
3588
3567
3643.33
3561.33
3536
3483.33
3558
3530.67
3530.67
3450
3513.33
3460
3456
3417.67
3455
3402
3381.67
3424.67
3387.33
3382
3342
3336.33
3344.33
3403.33
3306.67
3340.33
3293.33
3352.33
3313
3345.33
3329
3302.67
3347.33
3311.33
3367.33
3398
3343
3378.67
3370.33
3405.33
3407
3465.67
3435
3493
3511.33
3551.67
3547
3552.33
3608.67
3635
3593
3763
3689.67
3802.33
3690.67
3791
3832
3871
3921.67
3925
3923.67
4033
4017.67
4074.33
4077
4180.67
4186.33
4234.33
4322.33
4251
4337.33
4394.67
4473
4628
4554.67
4568
4573
4656.67
4645
4631.33
4665.67
4609.67
4564.67
4623
4483
4474.33
4392
4418
4452.33
4341
4253.33
4172.67
3987.33
3979.67
3696.67
3475
3269.33
3042.33
2895.33
2707.67
2638
2523.33
2488.33
2440.33
2403.67
2375.67
2385
2279.67
2328.33
2318.33
2305.67
2297.33
2286
2283.67
2303
2304.33
2277
2288
2290.33
2303.33
2267.67
2268.33
2234
2252.67
2240.33
2253
2232.33
2275.67
2233.67
2262.67
2240.67
2241
2267.67
2264.67
2206
2280.67
2259
2230.67
2230.33
2254.67
2225.33
2266.67
2237.33
2220
2250
2271
2252
2233.33
2231.67
2257.33
2225.67
2201
2233.33
2281.67
2252.33
2272.33
2244.67
2243.33
2221.67
2201.33
2225.33
2189.33
2215
2243
2262.33
2219.67
2268
2225
2216.67
2191
2248.33

Full

Zn2p3
1
1050
-0.1000
450
7065
7112
7051
7066
6994
7164
7043
7062
7031
6858
7092
6981
6964
7059
7019
7133
7073
7154
7056
6979
7085
6995
7013
7110
7069
7142
7124
6836
6943
7053
7099
6988
7136
7243
7027
7141
7101
7103
7135
7096
7116
7052
7150
6999
7194
6908
7141
7008
7214
6956
6932
7058
7114
6960
6964
6906
6960
7308
7012
7022
7022
6984
7057
7038
7002
6931
7020
7077
7115
7178
6993
6953
7104
6949
7009
7003
7165
7046
7048
7148
7070
7133
7051
7073
7298
7092
7114
7129
7097
7166
7221
7113
7297
7290
7294
7357
7225
7431
7420
7406
7346
7584
7497
7703
7587
7754
7868
7692
7880
7698
7914
7758
7714
7793
7929
7912
7614
7898
7576
7704
7724
7596
7587
7471
7570
7493
7341
7359
7396
7400
7175
7300
7212
7238
7164
7166
7099
7082
7162
7188
7123
7269
7238
7273
6983
7173
7065
7051
7157
7076
7095
7125
7152
7145
7179
7279
7239
7184
7173
7142
7142
7053
7154
7253
7189
7068
7167
7153
7122
7282
7295
7256
7125
7300
7075
7135
7268
7194
7181
7106
7264
7162
7096
7151
7142
7155
7043
7021
7072
7229
7141
7264
7094
7116
7162
7079
7113
7121
7049
7057
7193
7335
7172
7040
7216
7027
7124
7163
7147
7147
7178
6971
7144
7133
7147
7105
7158
7125
6940
7070
7044
7057
7028
7071
7241
7121
7178
7236
7134
7156
7198
7171
7103
7083
7040
7064
7036
6972
7178
7048
7189
6967
6946
7094
7171
7055
6916
7080
7189
7028
7167
7062
7230
7220
7109
7168
7037
7240
7055
7189
7016
6985
7216
7113
7018
7213
7028
7066
7112
6998
7107
7079
7187
7120
7074
7056
6983
7115
7014
7117
7038
7057
7152
7006
6938
7067
7065
6961
7141
6998
6989
7201
7195
6960
7085
6953
6992
7193
7093
7063
7033
7198
7071
6978
7134
7184
7077
7094
7172
7277
7082
7109
7166
7038
7090
7127
7172
7183
7224
7245
7283
7054
7169
7358
7284
7427
7559
7521
7715
7648
7687
7740
7900
7956
8024
8316
8259
8414
8449
8529
8468
8498
8570
8527
8682
8530
8511
8398
8303
8251
8306
8192
7946
8031
7731
7866
7608
7504
7474
7475
7614
7328
7365
7323
7180
7144
7263
7087
7123
7393
7283
7236
7202
6993
7141
7191
7081
7300
7129
7224
7208
7135
7117
7089
7224
7132
7232
7164
7136
7062
7070
7142
7070
7127
7172
7170
7091
7247
7128
7179
7241
7215
7085
7148
7237
6976
7184
7053
7150
6997
7312
7084
7119
7131
7019
7230
7154
7073
7039
7078
7048
7125
7163
7111
7204
7044
7259
7014
7023
7107
7167
7190
7319
7096
7151
7093
7246
7146
7133
7172
7172
6994
7126
7067
7058
7100
7086
7192
7060
7066

Full

Ag3d
1
375.0000
-0.1000
200
1220
1184
1098
1200
1316
1192
1262
1162
1166
1152
1140
1146
1176
1168
1098
1170
1212
1112
1194
1176
1094
1252
1112
1162
1224
1210
1162
1226
1236
1188
1196
1260
1114
1260
1248
1120
1136
1128
1244
1210
1134
1188
1112
1166
1162
1228
1170
1178
1202
1180
1128
1124
1182
1272
1190
1192
1238
1256
1264
1234
1222
1188
1332
1398
1416
1444
1596
1736
1926
1964
1982
2180
2308
2274
2190
2150
1984
1822
1664
1504
1496
1440
1294
1310
1156
1234
1194
1242
1298
1182
1184
1138
1174
1086
1160
1182
1220
1170
1220
1234
1088
1146
1056
1188
1070
1160
1200
1188
1130
1268
1124
1256
1202
1188
1146
1252
1244
1212
1194
1200
1300
1214
1222
1496
1490
1664
1790
1846
1962
2280
2538
2704
2752
2774
2644
2554
2346
2118
1816
1680
1510
1398
1304
1352
1370
1350
1244
1242
1128
1186
1264
1228
1248
1228
1212
1226
1220
1136
1262
1224
1204
1228
1216
1208
1240
1182
1226
1178
1214
1078
1190
1154
1122
1124
1266
1156
1126
1164
1154
1196
1146
1144
1222
1234
1176
1254
1116
1198
1132
1148
1200
1124
1122
1204
1118
1180
1132
1192
1218
1194

Full

Sn3d5
1
510.0000
-0.1000
300
1116
1208
1144
1152
1140
1147
1121
1178
1220
1115
1124
1108
1151
1141
1129
1194
1112
1117
1174
1101
1103
1198
1179
1209
1159
1157
1099
1128
1097
1166
1151
1154
1135
1143
1130
1124
1146
1211
1138
1094
1204
1107
1149
1165
1155
1118
1221
1123
1138
1157
1194
1158
1198
1098
1200
1116
1133
1181
1167
1062
1127
1140
1118
1111
1049
1173
1180
1123
1195
1172
1166
1076
1117
1111
1109
1176
1129
1140
1186
1129
1136
1156
1219
1172
1147
1147
1205
1161
1104
1169
1157
1126
1230
1102
1150
1193
1148
1166
1108
1146
1174
1126
1224
1069
1107
1204
1176
1194
1188
1153
1148
1160
1170
1146
1120
1203
1241
1241
1177
1123
1150
1114
1095
1163
1121
1158
1153
1164
1167
1181
1166
1169
1203
1096
1220
1125
1171
1173
1152
1171
1196
1188
1212
1211
1174
1216
1185
1232
1234
1286
1227
1193
1269
1328
1337
1340
1325
1340
1344
1348
1323
1359
1376
1356
1362
1334
1363
1308
1319
1285
1327
1385
1340
1313
1301
1394
1328
1273
1390
1314
1355
1417
1442
1373
1388
1338
1385
1364
1406
1332
1334
1324
1267
1365
1367
1406
1236
1275
1347
1326
1248
1249
1247
1277
1231
1216
1247
1208
1185
1161
1180
1251
1126
1236
1215
1225
1191
1147
1188
1148
1199
1112
1081
1129
1069
1132
1120
1081
1146
1116
1079
1122
1089
1086
1065
1097
1078
1125
1056
1051
1031
1004
1070
1081
1060
1064
1025
1084
1022
1065
1072
1061
1056
1097
1065
1061
1091
1161
1108
1092
1054
1103
1035
1031
1051
1061
1045
1059
1022
1032
1135
1061
1015
1072
1068
1032
1081
1019
1105
1069
1035
1067
1045
1042
1076
1028
1011
1023
1097
1015
1024
1090
1107
1155
1101
1091
1074
1130
1065
1069

Full

Si2p
1
110.0000
-0.1000
200
891.4286
841.4286
814.2857
874.2857
865.7143
917.1429
888.5715
840.0000
811.4286
821.4286
918.5715
857.1429
820.0000
834.2857
851.4286
830.0000
865.7143
827.1429
822.8572
815.7143
834.2857
850.0000
832.8572
860.0000
901.4286
801.4286
834.2857
764.2857
831.4286
881.4286
884.2857
860.0000
818.5715
847.1429
845.7143
861.4286
830.0000
885.7143
817.1429
804.2857
834.2857
847.1429
850.0000
815.7143
770.0000
875.7143
772.8572
808.5715
758.5714
782.8572
872.8572
791.4286
842.8572
845.7143
812.8572
760.0000
821.4286
837.1429
792.8572
888.5715
821.4286
764.2857
825.7143
811.4286
791.4286
771.4286
862.8572
790.0000
841.4286
751.4286
828.5715
858.5715
892.8572
851.4286
790.0000
772.8572
771.4286
805.7143
838.5715
857.1429
850.0000
815.7143
818.5715
908.5715
824.2857
798.5715
844.2857
834.2857
825.7143
812.8572
821.4286
808.5715
800.0000
837.1429
828.5715
878.5715
818.5715
808.5715
810.0000
792.8572
827.1429
865.7143
835.7143
854.2857
817.1429
817.1429
797.1429
804.2857
832.8572
820.0000
750.0000
807.1429
814.2857
861.4286
800.0000
798.5715
802.8572
815.7143
811.4286
781.4286
820.0000
822.8572
752.8572
825.7143
790.0000
812.8572
778.5715
837.1429
751.4286
864.2857
801.4286
870.0000
912.8572
901.4286
850.0000
912.8572
918.5715
880.0000
910.0000
927.1429
934.2857
865.7143
930.0000
902.8572
950.0000
941.4286
872.8572
911.4286
845.7143
847.1429
844.2857
880.0000
862.8572
852.8572
794.2857
781.4286
894.2857
855.7143
827.1429
870.0000
905.7143
870.0000
821.4286
847.1429
864.2857
837.1429
888.5715
884.2857
848.5715
942.8572
865.7143
857.1429
830.0000
865.7143
860.0000
805.7143
871.4286
851.4286
867.1429
807.1429
817.1429
901.4286
805.7143
825.7143
871.4286
758.5714
837.1429
798.5715
821.4286
830.0000
835.7143
878.5715
842.8572
807.1429
794.2857
834.2857
795.7143
817.1429
807.1429
860.0000

Full

Fe3p
1
65.0000
-0.2500
81
1752
1776
1764
1704
1815
1772
1740
1714
1715
1724
1704
1761
1721
1710
1671
1642
1655
1688
1641
1715
1773
1750
1803
1753
1777
1799
1719
1840
1813
1803
1810
1882
1794
1818
1769
1848
1727
1791
1640
1725
1691
1639
1747
1714
1703
1703
1782
1825
1895
1875
1946
2045
2135
2163
2381
2350
2547
2772
2874
3030
3219
3367
3614
3797
3714
3549
3302
2864
2436
2000
1456
1316
1069
960.0000
869.0000
895.0000
847.0000
882.0000
797.0000
846.0000
791.0000