File: assets/data/P03/xps/MH1210_36.asc
Full

C1s
1
296.0000
-0.1000
180
1553.33
1466.67
1571.67
1511.67
1473.33
1558.33
1503.33
1511.67
1451.67
1488.33
1368.33
1555
1396.67
1511.67
1510
1568.33
1516.67
1493.33
1505
1506.67
1516.67
1443.33
1485
1460
1431.67
1535
1530
1425
1431.67
1451.67
1426.67
1458.33
1381.67
1398.33
1366.67
1380
1450
1510
1365
1423.33
1370
1381.67
1435
1436.67
1533.33
1330
1353.33
1430
1371.67
1465
1391.67
1321.67
1438.33
1455
1438.33
1353.33
1500
1451.67
1526.67
1460
1451.67
1545
1603.33
1571.67
1675
1711.67
1788.33
1833.33
1938.33
2016.67
2025
2066.67
2091.67
2023.33
2115
2126.67
2105
2043.33
1986.67
2066.67
1841.67
1821.67
1718.33
1731.67
1681.67
1735
1743.33
1761.67
1735
1878.33
1855
1901.67
1981.67
2231.67
2403.33
2536.67
2638.33
3063.33
3210
3870
4320
4873.33
5665
6486.67
7485
8368.33
9181.67
10111.7
10913.3
11213.3
11510
11136.7
10780
9685
8390
7188.33
6070
4921.67
4098.33
3240
2643.33
2280
2058.33
1698.33
1615
1605
1525
1411.67
1431.67
1438.33
1346.67
1368.33
1355
1348.33
1333.33
1378.33
1375
1290
1338.33
1308.33
1275
1345
1358.33
1286.67
1278.33
1290
1395
1258.33
1358.33
1291.67
1381.67
1246.67
1413.33
1290
1315
1295
1275
1328.33
1311.67
1276.67
1250
1240
1335
1273.33
1333.33
1341.67
1308.33
1338.33
1215
1323.33
1390
1291.67
1308.33
1271.67
1211.67
1251.67
1321.67
1330
1211.67
1258.33

Full

O1s
1
540.0000
-0.1000
140
3002
3046
3062.5
3069
2947
3023
2997
3007
2962
2925.5
2930.5
2946.5
2959
2989.5
2957.5
2950
2992.5
2896
2945.5
2924.5
2958.5
2941
2851.5
2882.5
2921.5
2875
2970
2881
2853.5
2887.5
2885
2928.5
2825
2830
2899
2902.5
2892
2876
2960.5
2928.5
2842.5
2874.5
2835.5
2906.5
2880.5
2841
2804.5
2843
2927.5
2826.5
2921
2923.5
2888.5
2972
2986
3130.5
3043.5
3115
3214
3315
3365.5
3338
3433
3527.5
3585.5
3774
3905.5
4082.5
4229
4354.5
4583
4857.5
5004
5384.5
5690.5
6057.5
6441.5
6797.5
7035.5
7309.5
7506.5
7952.5
8017
8316
8279.5
8379.5
8329
8425.5
8561.5
8663
8731.5
9145.5
9522
10325.5
11073.5
11893
12575
13267
13607
13638.5
13432.5
12868
12052
10987
9740
8668
7425
6317.5
5439.5
4658
4078
3619.5
3310
3023
2832
2697
2616.5
2599.5
2493.5
2538
2515
2460
2475
2414
2390
2407.5
2409
2336.5
2369
2382.5
2373
2391.5
2340
2333
2319.5
2349.5
2364.5
2386
2360
2315

Full

F1s
1
700.0000
-0.1000
200
5174.5
5179.5
5169.5
5152
5110
5210
5133
5168
5191.5
5147
5153.5
5147.5
5158
5210
5254.5
5233.5
5243
5210
5153
5153
5153
5184.5
5292
5292.5
5130
5270
5201.5
5202
5121.5
5182
5265.5
5247
5139
5153.5
5150
5215.5
5158.5
5126.5
5169.5
5190
5201
5176.5
5187.5
5138.5
5238
5204.5
5169.5
5171
5100
5129.5
5200.5
5136.5
5171
5129.5
5096.5
5177.5
5171
5099
5134
5152
5266
5103
5051.5
5126
5164.5
5150
5064.5
5121.5
5112
5131.5
5075
5070
5136.5
5122.5
5173
5065.5
5084.5
5068.5
5046.5
5149
5139
5059.5
5171
5028.5
5105
5138.5
5150.5
5134.5
5088.5
5202.5
5176.5
5206.5
5247
5206
5173.5
5283.5
5163
5388.5
5383.5
5367.5
5408.5
5382
5410
5396
5342
5366.5
5409.5
5423.5
5321.5
5277.5
5352
5357.5
5316
5246.5
5259.5
5264
5159
5158
5152
5070.5
5133
5097
5147
5096.5
5074.5
5054
5025
5093.5
5052.5
5121
5004.5
5091
5059
5018
4941
5085
5053.5
5068.5
5120.5
5121.5
5088.5
5093
5082
5172
5024.5
5076
5052
5081.5
5046
5035.5
5139
5029
5186
5117.5
5179
5084.5
5238
5089.5
5131.5
5034
5197
5014
5064
5143.5
5097
5131
5087.5
4996.5
5108.5
4990
5121
5108
5097.5
5121
5142
5062.5
5132
5143.5
5149
5131
5068.5
5131.5
5003
5008
5038
5067.5
5136
5112
5073.5
5080
5046.5
5074
5142.5
5072.5
4990
5037.5
5004.5
5111.5
5077.5
5082.5

Full

Zn2p3
1
1056
-0.1000
400
10511.5
10581.8
10528.5
10383
10398.2
10431.8
10441.5
10475
10418.2
10413.8
10599.8
10448.5
10511.5
10469.5
10440.8
10455
10408.2
10487.8
10438.8
10491.2
10399.2
10365
10508.2
10448.8
10573.2
10384.2
10559.8
10479.8
10498.8
10462
10530
10420.2
10410.2
10453.2
10408.8
10449
10437.2
10443.2
10402.5
10396.2
10428.2
10477
10477.2
10502.2
10459.8
10508
10504.5
10473
10565.5
10511.5
10476.8
10437.8
10475.2
10494
10567.2
10513.2
10447.2
10532.8
10534.2
10474.8
10334
10426.2
10428.2
10431.8
10532
10506.2
10395.2
10386.2
10419.5
10562.2
10527.2
10479.5
10551.8
10500
10493.5
10588
10526
10532.5
10581.5
10573.2
10614.8
10538.2
10614.8
10553
10588.5
10621.8
10637.5
10623.5
10711
10754.8
10659.2
10790.5
10829.8
10886.5
11037.2
11063.5
11233
11211
11238.8
11512.8
11642.2
11749
11810.5
12023
12196
12519.2
12598.8
12812.2
13061
12966.2
13339.8
13529
13512.2
13537.2
13502
13414
13222.8
13079.8
12841.5
12663.8
12397
12162.5
11907.8
11790.8
11464
11413.5
11169
11124
10919
10926.8
10849.2
10718.5
10831
10788
10748.8
10681
10702
10709
10655.8
10625.2
10688.5
10576.8
10662
10619.8
10577.2
10535.8
10654.8
10641.2
10477.8
10639.2
10525.5
10654
10518.5
10529.5
10586
10506
10582
10537.5
10548.8
10496.5
10475
10516.2
10516.8
10513.5
10510.5
10496.8
10539.8
10584.5
10472
10504.2
10452.8
10518.8
10405.5
10486.2
10513
10413
10462
10470.8
10460.5
10464.8
10496
10478.8
10535.2
10381.8
10405.2
10536.5
10404.5
10494.2
10415.5
10431.5
10424.8
10403.8
10373.8
10442
10384.8
10477
10345.8
10385
10372
10414.2
10387
10372.5
10371
10354.2
10336.5
10340
10404.5
10396.2
10365.8
10359.8
10407.8
10340.2
10370
10284.2
10284.5
10373
10404.5
10282.8
10286
10227.5
10282.2
10322.2
10223
10276.5
10221.5
10308
10283.5
10357
10291.2
10316.2
10213.8
10237.5
10255.2
10199
10285.8
10322.5
10181
10222.5
10085.2
10216.5
10125.8
10259.8
10206.2
10170.5
10234.8
10284.5
10218.5
10237.5
10229.8
10181.2
10227.8
10174.8
10277.5
10220.8
10123.5
10208
10123.2
10166.5
10182
10193.8
10090.2
10126.5
10150.5
10112.5
10151.5
10144.2
10177.2
10178
10111.2
10084
10189
10081
10125
10069
10129.2
10071.8
10017.8
10084.5
10043
10100.5
10035.5
10114
10018.8
10018.2
10084.2
10046.2
10116.2
10064
10099.2
10059.2
10116
10132.8
10185
10044
10098
10151.2
10088.2
10030.8
10118.2
10027.8
10120.2
10157.8
10089.8
10076.2
10067
10069
10098.8
10045.5
10185.8
10106
10221.5
10157.5
10163.8
10283.5
10270
10200.2
10219.8
10287
10255.2
10342.5
10337.2
10473.8
10593.2
10622.2
10639
10878.2
11030.2
11097.2
11343.8
11405.2
11756
12168.8
12397.8
12767
13138
13655.2
14078
14577.5
14825.5
15287
15826.2
16082.5
16372
16487.5
16305
16344.5
16156
15823.2
15264.5
14870.5
14284.2
13718.5
13188.5
12633.5
12200.8
11883.2
11514.8
11313
11168.8
10911.2
10752.5
10550
10493.8
10441.5
10370
10314.8
10342.8
10226
10249
10279.2
10274.8
10238.5
10159.2
10127.8
10181
10227.8
10134.5
10098.2
10142.8
10125.8
10069
10130.2
10080.8
10038.5
10063.2
10146.8
10064
10057.8
10076.8
10137.2
10022.8
10107
10172.8
10098.8
10133
10079
10013
10065.2
10121.2
10035.5

Full

Fe2p
1
740.0000
-0.1000
400
7648.67
7703.17
7755.67
7701.17
7695.83
7628.67
7644.17
7697.5
7667.83
7633.67
7656.67
7647.17
7674
7660
7627.67
7663.67
7692.5
7629
7640
7665.83
7592.17
7657
7635.67
7707.17
7667.5
7669.67
7631.33
7591.67
7675.5
7612.83
7661.5
7641.67
7718.33
7675.33
7651.83
7688.83
7705.17
7768.83
7761.17
7719.17
7737.33
7653.17
7686.5
7782.67
7709.17
7745.33
7767.83
7772.5
7757.83
7770.17
7731.83
7816.67
7836.67
7843.83
7742.33
7792.33
7812.5
7897.33
7844.17
7819.5
7800
7819
7936
7851
7881
7789.83
7835
7871.67
7833
7849.83
7794.17
7880.5
7848.33
7802.17
7838.67
7800.33
7781.5
7742.67
7756.83
7731.67
7821
7798.17
7671.5
7734
7726.5
7767.5
7751.5
7700.83
7685.67
7683.33
7746
7692.5
7613.5
7658
7555.33
7652.67
7570
7640.5
7731.83
7623.67
7645.33
7652.83
7672
7655.33
7663.17
7698.33
7639.83
7704.67
7652.17
7725.5
7703.17
7764.83
7652.83
7789.67
7772.17
7746.17
7774.67
7785.5
7808.67
7816.83
7807.67
7852.67
7905.5
7902
7897
7926.67
7959
7927.67
7959.33
8017.5
7994
8031.17
8081
8177.83
8170
8116.17
8223.83
8259
8310.83
8275.17
8184.83
8278.5
8384.17
8363.17
8330.5
8353
8373.33
8367.67
8416.17
8500.67
8501.83
8473.33
8460.83
8479.33
8433.67
8452.33
8427.67
8398
8300
8306.17
8312.17
8241.33
8199.17
8160.5
8118.5
8040.33
7985.33
7921.33
7913.33
7815.17
7730.67
7646.17
7641.17
7633
7518.33
7425.83
7475.33
7335
7347.17
7310.5
7251.33
7334.83
7227.5
7214.33
7231
7220.33
7193.67
7326.33
7253.5
7271
7272
7276.17
7204.33
7214.83
7206.17
7301.67
7251
7293
7282.17
7260.17
7273.33
7342.67
7326.5
7290.33
7310.17
7283.17
7313.33
7307
7251.83
7224.17
7257.17
7281.5
7277.67
7258
7273.17
7283.17
7187.67
7276.5
7233
7196.83
7135.83
7200.83
7154.17
7068.5
7119.5
7097.67
7075.83
7033.33
7095.5
7085.33
7013.17
7038
6982.33
6990.5
6961.67
6994.83
6970.67
7010.83
7017.83
6996.17
7010.83
7025.67
7031
7026.17
7098.5
7059.17
7061.5
7112.5
7130.17
7174.17
7151.33
7186.17
7215.5
7270.33
7305
7272.33
7392.33
7364.67
7414.83
7485.17
7502
7506.83
7624.5
7669.33
7654.83
7713.5
7803
7864.17
7818.67
7970.5
8103
8067.5
8092.17
8231.83
8245
8224.33
8357.17
8459
8467.5
8558.5
8538.67
8743.67
8637
8747.83
8799.33
8834.67
8908.67
8885.83
8986.83
8891.67
8950.17
8887.5
8884.33
8787.33
8700.67
8592.5
8463
8460.5
8266.17
8009
7914.5
7690.83
7512
7255
7108.83
6771.83
6571.83
6464.17
6244.83
6069.5
5962.83
5871
5760.17
5701.33
5680.83
5619.67
5613
5598.17
5593.5
5545.5
5457.5
5474.83
5466
5469.83
5403.17
5378.67
5349.5
5431.5
5399.83
5383.33
5362.83
5360.5
5353.33
5311.33
5385.17
5349.33
5362.67
5352.5
5381
5372
5380.17
5312
5360
5306.5
5345.83
5378.33
5345.33
5333.17
5392.5
5335.83
5314.83
5392.67
5366.83
5264.83
5333
5327.67
5347
5295.5
5346.17
5326
5369.67
5324.83
5344.17
5390.83
5347.83
5328.83
5280
5234.67
5339
5267.5
5254.67
5290.17
5322.17
5295.83
5251.33
5279.67
5268
5216.33
5252
5273.33
5307.33
5291.17
5291.5
5295.67
5263.5
5274.17
5261.17
5219
5181.17
5203.17
5213.33
5181
5262
5202.5
5218.33
5238
5270.17
5201.67
5196.5
5230

Full

Ag3d
1
384.0000
-0.1000
200
1378
1331
1349
1324
1339
1351
1302
1339
1306
1333
1328
1347
1350
1318
1316
1314
1184
1300
1319
1312
1399
1367
1349
1279
1280
1393
1252
1271
1309
1269
1376
1308
1351
1323
1332
1376
1353
1321
1308
1315
1295
1238
1286
1312
1317
1363
1297
1344
1268
1245
1310
1356
1286
1370
1273
1290
1301
1309
1344
1334
1324
1343
1283
1316
1374
1303
1347
1353
1262
1331
1316
1335
1367
1323
1323
1332
1356
1370
1361
1301
1361
1309
1366
1336
1352
1442
1462
1486
1498
1583
1781
1818
1864
1917
2110
2215
2101
2098
2145
1991
1865
1736
1652
1661
1556
1455
1433
1391
1400
1333
1356
1359
1343
1318
1348
1317
1305
1304
1342
1295
1279
1373
1338
1301
1301
1335
1276
1306
1348
1280
1268
1321
1259
1278
1328
1366
1252
1309
1310
1349
1302
1422
1329
1327
1421
1376
1424
1563
1611
1638
1910
2031
2183
2356
2486
2503
2551
2385
2305
2246
1993
1815
1817
1684
1634
1501
1512
1438
1427
1401
1325
1344
1372
1334
1248
1289
1314
1275
1316
1362
1299
1363
1258
1340
1295
1312
1223
1313
1306
1309
1308
1288
1245
1295
1360
1327
1247
1256
1309
1294

Full

Sn3d5
1
500.0000
-0.1000
200
2686
2627
2833
2748
2799
2847
2810
2939
3047
3067
3118
3127
3236
3148
3101
3294
3318
3254
3457
3423
3427
3397
3341
3462
3396
3260
3228
3177
3185
3120
3098
2989
3102
2957
2856
2870
2745
2796
2718
2714
2683
2750
2788
2726
2670
2713
2704
2718
2675
2645
2641
2570
2505
2420
2471
2317
2330
2316
2271
2221
2208
2190
2024
2035
1990
1969
1943
1929
1871
1829
1845
1792
1791
1801
1757
1722
1671
1731
1614
1612
1616
1705
1553
1627
1673
1617
1685
1602
1655
1589
1633
1617
1627
1516
1548
1547
1559
1601
1621
1527
1521
1547
1572
1529
1558
1603
1554
1520
1593
1693
1492
1579
1563
1569
1585
1496
1599
1607
1609
1583
1650
1718
1702
1710
1786
1780
1840
1881
1820
1953
1991
1930
1911
2054
1997
1991
1862
1855
1819
1775
1728
1744
1600
1626
1551
1579
1555
1599
1481
1560
1583
1590
1607
1602
1529
1570
1567
1535
1661
1577
1526
1530
1570
1505
1597
1547
1605
1529
1590
1535
1525
1574
1521
1528
1531
1567
1532
1603
1603
1559
1575
1602
1548
1572
1569
1568
1584
1559
1579
1565
1517
1566
1579
1576
1524
1581
1566
1528
1545
1521

Full

Si2p
1
115.0000
-0.1000
200
1416
1435
1449
1427
1516
1510
1486
1444
1452
1433
1491
1454
1504
1446
1529
1468
1507
1477
1441
1480
1509
1494
1463
1538
1520
1446
1476
1460
1480
1458
1489
1444
1472
1362
1370
1441
1440
1451
1444
1398
1388
1400
1369
1414
1405
1322
1384
1405
1343
1378
1387
1403
1379
1379
1381
1381
1329
1326
1361
1299
1460
1328
1328
1372
1336
1386
1363
1369
1381
1360
1377
1331
1313
1338
1348
1381
1272
1299
1257
1336
1364
1279
1295
1227
1332
1252
1359
1321
1298
1278
1268
1308
1320
1283
1275
1272
1283
1242
1247
1279
1259
1362
1293
1284
1321
1291
1280
1321
1276
1302
1321
1291
1292
1280
1311
1288
1337
1313
1328
1406
1349
1297
1333
1424
1337
1396
1415
1347
1393
1365
1403
1348
1408
1341
1375
1329
1326
1254
1340
1326
1309
1302
1327
1334
1301
1290
1321
1294
1338
1302
1298
1328
1224
1240
1372
1245
1378
1331
1306
1291
1301
1322
1237
1348
1298
1280
1207
1288
1235
1236
1274
1260
1336
1242
1263
1259
1228
1350
1261
1289
1262
1297
1300
1304
1305
1298
1243
1288
1232
1329
1313
1312
1360
1366
1324
1315
1366
1323
1461
1382